,participant,trial,condition,mean_eda,accuracy,mean_rt
0,3F,1,Calming 1-back,7.246253436592448,0.8636363636363636,564.4090909090909
1,3F,1,Calming 3-back,7.400859148112294,,
2,3F,1,Vexing 1-back,6.746979436619719,0.9090909090909091,292.22727272727275
3,3F,1,Vexing 3-back,6.183471248789932,,
4,3F,2,Calming 1-back,7.281742787996127,,
5,3F,2,Calming 3-back,7.399932834424695,0.6818181818181818,488.1363636363636
6,3F,2,Vexing 1-back,6.894519632495165,,
7,3F,2,Vexing 3-back,6.1589490328820125,0.7272727272727273,617.0454545454545
8,3F,3,Calming 1-back,7.701161471442401,,
9,3F,3,Calming 3-back,7.858523617619494,0.7272727272727273,492.27272727272725
10,3F,3,Vexing 1-back,6.8525444756554315,0.7727272727272727,438.8636363636364
11,3F,3,Vexing 3-back,6.124098063891578,,
12,3F,4,Calming 1-back,7.932556437560503,0.9545454545454546,308.95454545454544
13,3F,4,Calming 3-back,7.81356541705717,,
14,3F,4,Vexing 1-back,6.765952274927396,,
15,3F,4,Vexing 3-back,6.091063636363637,0.8181818181818182,516.0909090909091
16,3F,5,Calming 1-back,8.0181647,,
17,3F,5,Calming 3-back,7.732806466729148,0.6818181818181818,656.8636363636364
18,3F,5,Vexing 1-back,6.6044262488646694,0.8181818181818182,352.72727272727275
19,3F,5,Vexing 3-back,6.067652532833021,,
20,3F,6,Calming 1-back,8.042332330827069,0.8181818181818182,326.77272727272725
21,3F,6,Calming 3-back,7.508757899999999,,
22,3F,6,Vexing 1-back,6.479025984990619,,
23,3F,6,Vexing 3-back,6.04826469483568,0.7727272727272727,441.95454545454544
24,3F,7,Calming 1-back,7.89081977507029,0.8181818181818182,218.63636363636363
25,3F,7,Calming 3-back,7.3308341,,
26,3F,7,Vexing 1-back,6.689407136150235,0.9090909090909091,214.5
27,3F,7,Vexing 3-back,6.033820767072029,,
28,3F,8,Calming 1-back,7.935632647333955,,
29,3F,8,Calming 3-back,7.186447799999999,0.6363636363636364,472.8181818181818
30,3F,8,Vexing 1-back,6.6945,,
31,3F,8,Vexing 3-back,6.010766043030869,0.7727272727272727,340.27272727272725
32,3F,9,Calming 1-back,7.738355295220244,,
33,3F,9,Calming 3-back,7.060185785785786,,
34,3F,9,Vexing 1-back,6.612858911819888,,
35,3F,9,Vexing 3-back,5.998667133520074,,
36,3F,10,Calming 1-back,7.865348595505617,,
37,3F,10,Calming 3-back,6.9552732,0.5909090909090909,558.0909090909091
38,3F,10,Vexing 1-back,6.5124401493930915,0.9090909090909091,221.0
39,3F,10,Vexing 3-back,5.977775703564727,,
40,3F,11,Calming 1-back,7.75144347826087,0.8636363636363636,339.40909090909093
41,3F,11,Calming 3-back,6.943860636363636,,
42,3F,11,Vexing 1-back,6.403109090909091,,
43,3F,11,Vexing 3-back,5.962011715089034,0.6818181818181818,390.54545454545456
44,3F,12,Calming 1-back,7.576490135396519,0.9090909090909091,279.45454545454544
45,3F,12,Calming 3-back,6.906877979981802,,
46,3F,12,Vexing 1-back,6.3682277255639095,,
47,3F,12,Vexing 3-back,5.95039379699248,0.7272727272727273,331.1818181818182
48,3F,13,Calming 1-back,7.483337394564198,,
49,3F,13,Calming 3-back,6.848695545454547,0.5909090909090909,506.1363636363636
50,3F,13,Vexing 1-back,6.303044840525328,0.9090909090909091,184.3181818181818
51,3F,13,Vexing 3-back,5.950197274436089,,
52,3F,14,Calming 1-back,7.361684097287183,,
53,3F,14,Calming 3-back,6.800684272727273,0.7727272727272727,557.6818181818181
54,3F,14,Vexing 1-back,6.328579662605435,,
55,3F,14,Vexing 3-back,5.937476194939081,0.7727272727272727,242.9090909090909
56,3F,15,Calming 1-back,7.5080031067961155,0.7727272727272727,427.8636363636364
57,3F,15,Calming 3-back,6.765453636363636,,
58,3F,15,Vexing 1-back,6.294738909090909,0.8636363636363636,182.95454545454547
59,3F,15,Vexing 3-back,5.925387816307403,,
60,3F,16,Calming 1-back,7.420729014084506,,
61,3F,16,Calming 3-back,6.724649817850637,0.6818181818181818,396.04545454545456
62,3F,16,Vexing 1-back,6.2555771610555055,,
63,3F,16,Vexing 3-back,6.017560714285714,0.0,585.9090909090909
64,3F,17,Calming 1-back,7.317920637898686,0.8636363636363636,299.0
65,3F,17,Calming 3-back,6.6846285454545455,,
66,3F,17,Vexing 1-back,6.304391560798549,0.9090909090909091,279.8636363636364
67,3F,17,Vexing 3-back,6.046890253045923,,
68,3F,18,Calming 1-back,7.180498839458414,,
69,3F,18,Calming 3-back,6.649139564428313,,
70,3F,18,Vexing 1-back,6.381026406533574,,
71,3F,18,Vexing 3-back,6.02652680412371,,
72,3F,19,Calming 1-back,7.166575820056233,,
73,3F,19,Calming 3-back,6.634979850046861,,
74,3F,19,Vexing 1-back,6.531166333030028,,
75,3F,19,Vexing 3-back,5.999480795344325,,
76,3F,20,Calming 1-back,7.073862898550725,,
77,3F,20,Calming 3-back,6.6349733268671205,,
78,3F,20,Vexing 1-back,6.5136074039362715,,
79,3F,20,Vexing 3-back,5.9704582768635035,,
80,3F,21,Calming 1-back,6.968834299516908,,
81,3F,21,Calming 3-back,6.617955275895451,,
82,3F,21,Vexing 1-back,6.5491873595505625,,
83,3F,21,Vexing 3-back,5.939865924491771,,
84,3F,22,Calming 1-back,6.945517601547389,,
85,3F,22,Calming 3-back,6.647479454545454,,
86,3F,22,Vexing 1-back,6.4762671962616825,,
87,3F,22,Vexing 3-back,5.925290513068732,,
88,3F,23,Calming 1-back,6.4974772727272745,,
89,3F,23,Calming 3-back,6.746633848953595,,
90,3F,23,Vexing 1-back,5.881608280254777,,
91,3F,23,Vexing 3-back,5.797312545454546,,
92,3F,24,Calming 1-back,6.443469454887218,,
93,3F,24,Calming 3-back,6.8345719775070295,,
94,3F,24,Vexing 1-back,6.016801312089972,,
95,3F,24,Vexing 3-back,5.752976158301158,,
96,3F,25,Calming 1-back,6.357648112294289,,
97,3F,25,Calming 3-back,6.906973170731708,,
98,3F,25,Vexing 1-back,6.032234240150094,,
99,3F,25,Vexing 3-back,5.874315637065636,,
100,3F,26,Calming 1-back,6.300327483124398,,
101,3F,26,Calming 3-back,6.817326241799439,,
102,3F,26,Vexing 1-back,5.994723992502342,,
103,3F,26,Vexing 3-back,5.945545164410057,,
104,3F,27,Calming 1-back,6.2516099516908215,,
105,3F,27,Calming 3-back,6.701211273080662,,
106,3F,27,Vexing 1-back,5.945616431924881,,
107,3F,27,Vexing 3-back,5.970542655367231,,
108,3F,28,Calming 1-back,6.214115183752417,,
109,3F,28,Calming 3-back,6.624589746001883,,
110,3F,28,Vexing 1-back,5.900109756097561,,
111,3F,28,Vexing 3-back,5.91543806763285,,
112,3F,29,Calming 1-back,6.183344585987262,,
113,3F,29,Calming 3-back,6.586600093984964,,
114,3F,29,Vexing 1-back,5.867527085285848,,
115,3F,29,Vexing 3-back,5.843050968992248,,
116,3F,30,Calming 1-back,6.158889087488241,,
117,3F,30,Calming 3-back,6.544108920187794,,
118,3F,30,Vexing 1-back,5.838015213178293,,
119,3F,30,Vexing 3-back,5.767998069498069,,
120,3F,31,Calming 1-back,6.141529776915616,,
121,3F,31,Calming 3-back,6.500472524271846,,
122,3F,31,Vexing 1-back,5.812798408239701,,
123,3F,31,Vexing 3-back,5.717906886517943,,
124,3F,32,Calming 1-back,6.122107973733584,,
125,3F,32,Calming 3-back,6.464563448922212,,
126,3F,32,Vexing 1-back,5.791176476101218,,
127,3F,32,Vexing 3-back,5.679243966323666,,
128,3F,33,Calming 1-back,6.115584882629108,,
129,3F,33,Calming 3-back,6.4517385700846654,,
130,3F,33,Vexing 1-back,5.797090319457889,,
131,3F,33,Vexing 3-back,5.648929275362319,,
132,3F,34,Calming 1-back,6.084278661493696,,
133,3F,34,Calming 3-back,6.4267504356243945,,
134,3F,34,Vexing 1-back,5.791028181818183,,
135,3F,34,Vexing 3-back,5.623164948453608,,
136,3F,35,Calming 1-back,6.072639212007505,,
137,3F,35,Calming 3-back,6.401795966228892,,
138,3F,35,Vexing 1-back,5.863031879844962,,
139,3F,35,Vexing 3-back,5.604992649903288,,
140,3F,36,Calming 1-back,6.049966666666667,,
141,3F,36,Calming 3-back,6.377424021838033,,
142,3F,36,Vexing 1-back,5.859208817829457,,
143,3F,36,Vexing 3-back,5.64150703564728,,
144,3F,37,Calming 1-back,6.048306091846298,,
145,3F,37,Calming 3-back,6.365545131086143,,
146,3F,37,Vexing 1-back,5.82753808630394,,
147,3F,37,Vexing 3-back,5.654175096525096,,
148,3F,38,Calming 1-back,6.035440168539325,,
149,3F,38,Calming 3-back,6.341041947565543,,
150,3F,38,Vexing 1-back,5.789130487804878,,
151,3F,38,Vexing 3-back,5.631897681159419,,
152,3F,39,Calming 1-back,6.023611246485473,,
153,3F,39,Calming 3-back,6.328647511737089,,
154,3F,39,Vexing 1-back,5.758360637300844,,
155,3F,39,Vexing 3-back,5.6350602514506765,,
156,3F,40,Calming 1-back,6.0107042174320515,,
157,3F,40,Calming 3-back,6.306904694835681,,
158,3F,40,Vexing 1-back,5.739766354264293,,
159,3F,40,Vexing 3-back,5.874316056338028,,
160,3F,41,Calming 1-back,5.999398162475821,,
161,3F,41,Calming 3-back,6.2922946579194,,
162,3F,41,Vexing 1-back,5.715370917874396,,
163,3F,41,Vexing 3-back,5.985856159068865,,
164,3F,42,Calming 1-back,5.999339922480619,,
165,3F,42,Calming 3-back,6.267849906015037,,
166,3F,42,Vexing 1-back,5.693839555125725,,
167,3F,42,Vexing 3-back,5.963426404494381,,
168,3F,43,Calming 1-back,5.986260674157302,,
169,3F,43,Calming 3-back,6.255267602996255,,
170,3F,43,Vexing 1-back,5.679127247191011,,
171,3F,43,Vexing 3-back,5.933999806576401,,
172,3F,44,Calming 1-back,5.977274564796905,,
173,3F,44,Calming 3-back,6.2433679475164015,,
174,3F,44,Vexing 1-back,5.666137113402062,,
175,3F,44,Vexing 3-back,5.8589987415295255,,
176,3F,45,Calming 1-back,5.887385686653771,,
177,3F,45,Calming 3-back,6.243195845410628,,
178,3F,45,Vexing 1-back,5.608822138836773,,
179,3F,45,Vexing 3-back,6.6107768509840685,,
180,3F,46,Calming 1-back,5.959485112359549,,
181,3F,46,Calming 3-back,6.316443486410496,,
182,3F,46,Vexing 1-back,5.59430432330827,,
183,3F,46,Vexing 3-back,6.541453195488723,,
184,3F,47,Calming 1-back,5.944528349514562,,
185,3F,47,Calming 3-back,6.263015399061032,,
186,3F,47,Vexing 1-back,5.580655065666041,,
187,3F,47,Vexing 3-back,6.359952582159624,,
188,3F,48,Calming 1-back,5.9044792836398825,,
189,3F,48,Calming 3-back,6.172879906103287,,
190,3F,48,Vexing 1-back,5.562787600000001,,
191,3F,48,Vexing 3-back,6.205064567669172,,
192,3F,49,Calming 1-back,5.878325169409487,,
193,3F,49,Calming 3-back,6.082056296992481,,
194,3F,49,Vexing 1-back,5.555771771771772,,
195,3F,49,Vexing 3-back,6.076768139097745,,
196,3F,50,Calming 1-back,5.8423261538461535,,
197,3F,50,Calming 3-back,6.028423452157599,,
198,3F,50,Vexing 1-back,5.543311,,
199,3F,50,Vexing 3-back,5.998331392174704,,
200,3F,51,Calming 1-back,5.820038081395349,,
201,3F,51,Calming 3-back,5.986315906886516,,
202,3F,51,Vexing 1-back,5.535219619619619,,
203,3F,51,Vexing 3-back,5.93822910798122,,
204,3F,52,Calming 1-back,5.96427420262664,,
205,3F,52,Calming 3-back,5.955616180620884,,
206,3F,52,Vexing 1-back,5.5312279,,
207,3F,52,Vexing 3-back,5.921900375586854,,
208,3F,53,Calming 1-back,5.9993803755868536,,
209,3F,53,Calming 3-back,5.93735243902439,,
210,3F,53,Vexing 1-back,5.518886143410852,,
211,3F,53,Vexing 3-back,5.887587431693989,,
212,3F,54,Calming 1-back,5.949574879227053,,
213,3F,54,Calming 3-back,5.912323307543519,,
214,3F,54,Vexing 1-back,5.508181721470019,,
215,3F,54,Vexing 3-back,5.852554264292409,,
216,3F,55,Calming 1-back,5.91229381642512,,
217,3F,55,Calming 3-back,5.8946886491557215,,
218,3F,55,Vexing 1-back,5.498992221180882,,
219,3F,55,Vexing 3-back,5.826187429643527,,
220,3F,56,Calming 1-back,5.980238431752177,,
221,3F,56,Calming 3-back,5.8757230769230775,,
222,3F,56,Vexing 1-back,5.505158470474346,,
223,3F,56,Vexing 3-back,5.789403470919325,,
224,3F,57,Calming 1-back,5.966335237173281,,
225,3F,57,Calming 3-back,5.861623805060918,,
226,3F,57,Vexing 1-back,5.482496334586466,,
227,3F,57,Vexing 3-back,5.7657374647887325,,
228,3F,58,Calming 1-back,5.920620406189554,,
229,3F,58,Calming 3-back,5.838095353339787,,
230,3F,58,Vexing 1-back,5.5430986866791745,,
231,3F,58,Vexing 3-back,5.765133801498127,,
232,3F,59,Calming 1-back,5.8757265761396695,,
233,3F,59,Calming 3-back,5.831518999999999,,
234,3F,59,Vexing 1-back,5.581259325210872,,
235,3F,59,Vexing 3-back,5.753130391264786,,
236,3F,60,Calming 1-back,5.83792031835206,,
237,3F,60,Calming 3-back,5.825844699999999,,
238,3F,60,Vexing 1-back,5.698370961887477,,
239,3F,60,Vexing 3-back,5.730451313320825,,
240,3F,61,Calming 1-back,5.808812778315586,,
241,3F,61,Calming 3-back,5.8113344,,
242,3F,61,Vexing 1-back,5.72816131455399,,
243,3F,61,Vexing 3-back,5.715784138559708,,
244,3F,62,Calming 1-back,5.777162959381044,,
245,3F,62,Calming 3-back,5.788629299999999,,
246,3F,62,Vexing 1-back,5.8323913615023475,,
247,3F,62,Vexing 3-back,5.703686948356807,,
248,3F,63,Calming 1-back,5.777348646034817,,
249,3F,63,Calming 3-back,5.790121999999999,,
250,3F,63,Vexing 1-back,5.91269305816135,,
251,3F,63,Vexing 3-back,5.6911321818181815,,
252,3F,64,Calming 1-back,5.764597938144329,,
253,3F,64,Calming 3-back,5.788893217054264,,
254,3F,64,Vexing 1-back,5.877194559099437,,
255,3F,64,Vexing 3-back,5.679260506566603,,
256,3F,65,Calming 1-back,5.7604134559535325,,
257,3F,65,Calming 3-back,5.777048742746615,,
258,3F,65,Vexing 1-back,5.824450580270792,,
259,3F,65,Vexing 3-back,5.666346948356807,,
260,3F,66,Calming 1-back,5.741984029038113,,
261,3F,66,Calming 3-back,5.805703186504218,,
262,3F,66,Vexing 1-back,5.7438612403100775,,
263,3F,66,Vexing 3-back,5.654361408450703,,
264,3F,67,Calming 1-back,6.191811142322098,,
265,3F,67,Calming 3-back,6.281567943925234,,
266,3F,67,Vexing 1-back,5.962764727954971,,
267,3F,67,Vexing 3-back,6.6849060918462975,,
268,3F,68,Calming 1-back,6.364441463414634,,
269,3F,68,Calming 3-back,6.191458106841612,,
270,3F,68,Vexing 1-back,6.025437272727273,,
271,3F,68,Vexing 3-back,6.636070422535212,,
272,3F,69,Calming 1-back,6.399119961240309,,
273,3F,69,Calming 3-back,6.03555938086304,,
274,3F,69,Vexing 1-back,6.008545829428303,,
275,3F,69,Vexing 3-back,6.495199157303372,,
276,3F,70,Calming 1-back,6.299788781431335,,
277,3F,70,Calming 3-back,5.965415117370892,,
278,3F,70,Vexing 1-back,5.9603025477707,,
279,3F,70,Vexing 3-back,6.313129334582944,,
280,3F,71,Calming 1-back,6.25435004840271,,
281,3F,71,Calming 3-back,5.9437349624060145,,
282,3F,71,Vexing 1-back,5.8972129334582934,,
283,3F,71,Vexing 3-back,6.191401452081316,,
284,3F,72,Calming 1-back,6.166556232939035,,
285,3F,72,Calming 3-back,5.87790497185741,,
286,3F,72,Vexing 1-back,5.876282074613284,,
287,3F,72,Vexing 3-back,6.086474296435273,,
288,3F,73,Calming 1-back,5.956685539906103,,
289,3F,73,Calming 3-back,5.7891749765698215,,
290,3F,73,Vexing 1-back,5.876112757973734,,
291,3F,73,Vexing 3-back,6.020399249530956,,
292,3F,74,Calming 1-back,5.609202177858438,,
293,3F,74,Calming 3-back,5.728006576402321,,
294,3F,74,Vexing 1-back,5.86247408123791,,
295,3F,74,Vexing 3-back,5.975070945945946,,
296,3F,75,Calming 1-back,5.5707415454545455,,
297,3F,75,Calming 3-back,5.680017338331771,,
298,3F,75,Vexing 1-back,5.821932146204311,,
299,3F,75,Vexing 3-back,5.951205400192864,,
300,3F,76,Calming 1-back,5.548576775956284,,
301,3F,76,Calming 3-back,5.654070328638498,,
302,3F,76,Vexing 1-back,5.7726868181818185,,
303,3F,76,Vexing 3-back,5.9161328959700095,,
304,3F,77,Calming 1-back,5.533119727272728,,
305,3F,77,Calming 3-back,5.6758314922480615,,
306,3F,77,Vexing 1-back,5.740117602996254,,
307,3F,77,Vexing 3-back,5.883974695407685,,
308,3F,78,Calming 1-back,5.707721368322399,,
309,3F,78,Calming 3-back,5.657701310861422,,
310,3F,78,Vexing 1-back,5.752360970873786,,
311,3F,78,Vexing 3-back,5.854459420289855,,
312,3F,79,Calming 1-back,5.7401610902255635,,
313,3F,79,Calming 3-back,5.641201312089971,,
314,3F,79,Vexing 1-back,5.764961872586872,,
315,3F,79,Vexing 3-back,5.82996832239925,,
316,3F,80,Calming 1-back,5.695896545454545,,
317,3F,80,Calming 3-back,5.656060483091788,,
318,3F,80,Vexing 1-back,5.897144727272727,,
319,3F,80,Vexing 3-back,5.804279887218046,,
320,3F,81,Calming 1-back,5.657336748120301,,
321,3F,81,Calming 3-back,5.63335300546448,,
322,3F,81,Vexing 1-back,5.937665789473683,,
323,3F,81,Vexing 3-back,5.828053436592449,,
324,3F,82,Calming 1-back,5.760268667917448,,
325,3F,82,Calming 3-back,5.607571040299906,,
326,3F,82,Vexing 1-back,5.907580581613508,,
327,3F,82,Vexing 3-back,5.900430910852712,,
328,3F,83,Calming 1-back,5.72814911131899,,
329,3F,83,Calming 3-back,5.582632333010649,,
330,3F,83,Vexing 1-back,5.8571520947176685,,
331,3F,83,Vexing 3-back,5.900476624636275,,
332,3F,84,Calming 1-back,5.672378019981834,,
333,3F,84,Calming 3-back,5.567634985968195,,
334,3F,84,Vexing 1-back,6.173504213483146,,
335,3F,84,Vexing 3-back,5.88285229615745,,
336,3F,85,Calming 1-back,5.621715894641235,,
337,3F,85,Calming 3-back,5.55190740393627,,
338,3F,85,Vexing 1-back,6.4012612932604736,,
339,3F,85,Vexing 3-back,5.858436740597878,,
340,3F,86,Calming 1-back,5.58004931756142,,
341,3F,86,Calming 3-back,5.543185594013097,,
342,3F,86,Vexing 1-back,6.529474522292995,,
343,3F,86,Vexing 3-back,5.841045647969052,,
344,3F,87,Calming 1-back,5.543146727272728,,
345,3F,87,Calming 3-back,5.592001683816651,,
346,3F,87,Vexing 1-back,6.535533458294284,,
347,3F,87,Vexing 3-back,6.151311434108527,,
348,3F,88,Calming 1-back,5.6357893158387995,,
349,3F,88,Calming 3-back,5.5992579150579145,,
350,3F,88,Vexing 1-back,6.412006647940075,,
351,3F,88,Vexing 3-back,6.30203507751938,,
352,3F,89,Calming 1-back,5.652665887850467,,
353,3F,89,Calming 3-back,5.900156513589503,,
354,3F,89,Vexing 1-back,6.1563477,,
355,3F,89,Vexing 3-back,5.826346550048591,,
356,3F,90,Calming 1-back,5.678940393626991,,
357,3F,90,Calming 3-back,5.870132018779342,,
358,3F,90,Vexing 1-back,6.336322099999999,,
359,3F,90,Vexing 3-back,5.849312088974854,,
360,3F,91,Calming 1-back,5.681642142142142,,
361,3F,91,Calming 3-back,5.8328728209934395,,
362,3F,91,Vexing 1-back,6.4022135,,
363,3F,91,Vexing 3-back,5.84992729912875,,
364,3F,92,Calming 1-back,5.6789225000000005,,
365,3F,92,Calming 3-back,5.780620112254444,,
366,3F,92,Vexing 1-back,6.3615322,,
367,3F,92,Vexing 3-back,5.821158567279767,,
368,3F,93,Calming 1-back,5.654076476476476,,
369,3F,93,Calming 3-back,5.753024390243903,,
370,3F,93,Vexing 1-back,6.284741199999999,,
371,3F,93,Vexing 3-back,5.777487330754352,,
372,3F,94,Calming 1-back,5.6541178,,
373,3F,94,Calming 3-back,5.753098872180452,,
374,3F,94,Vexing 1-back,6.2359259,,
375,3F,94,Vexing 3-back,5.747961374636979,,
376,3F,95,Calming 1-back,5.6412640000000005,,
377,3F,95,Calming 3-back,5.7402131898971,,
378,3F,95,Vexing 1-back,6.1662343,,
379,3F,95,Vexing 3-back,5.740259341723136,,
380,3F,96,Calming 1-back,5.804590789473684,,
381,3F,96,Calming 3-back,5.719830636363637,,
382,3F,96,Vexing 1-back,6.1600491,,
383,3F,96,Vexing 3-back,5.771857212003872,,
384,3F,97,Calming 1-back,5.689923062015503,,
385,3F,97,Calming 3-back,5.703477247191011,,
386,3F,97,Vexing 1-back,6.1197801,,
387,3F,97,Vexing 3-back,5.759734849951597,,
388,3F,98,Calming 1-back,5.661670251937984,,
389,3F,98,Calming 3-back,5.691074296435272,,
390,3F,98,Vexing 1-back,6.0554807,,
391,3F,98,Vexing 3-back,5.707965634075508,,
392,3F,99,Calming 1-back,5.641381650485437,,
393,3F,99,Calming 3-back,5.690955929038282,,
394,3F,99,Vexing 1-back,6.036207,,
395,3F,99,Vexing 3-back,5.679281086142321,,
396,3F,100,Calming 1-back,5.629529803186504,,
397,3F,100,Calming 3-back,5.679842213883677,,
398,3F,100,Vexing 1-back,5.999453553553552,,
399,3F,100,Vexing 3-back,5.666673593466425,,
400,3F,101,Calming 1-back,5.61651757518797,,
401,3F,101,Calming 3-back,5.678932623426912,,
402,3F,101,Vexing 1-back,5.9664702,,
403,3F,101,Vexing 3-back,5.654482441314553,,
404,3F,102,Calming 1-back,5.616721126760562,,
405,3F,102,Calming 3-back,5.6757591,,
406,3F,102,Vexing 1-back,5.926247747747746,,
407,3F,102,Vexing 3-back,5.641794013096351,,
408,3F,103,Calming 1-back,5.634669634489222,,
409,3F,103,Calming 3-back,5.6661237,,
410,3F,103,Vexing 1-back,5.9003097,,
411,3F,103,Vexing 3-back,5.2670209389671365,,
412,3F,104,Calming 1-back,5.653882832201746,,
413,3F,104,Calming 3-back,5.6575033999999995,,
414,3F,104,Vexing 1-back,5.896098499061914,,
415,3F,104,Vexing 3-back,5.679306009389671,,
416,3F,105,Calming 1-back,5.655395841392649,,
417,3F,105,Calming 3-back,5.654058239700374,,
418,3F,105,Vexing 1-back,5.8794510280373835,,
419,3F,105,Vexing 3-back,5.666487804878049,,
420,3F,106,Calming 1-back,5.641166541705716,,
421,3F,106,Calming 3-back,5.642603568075117,,
422,3F,106,Vexing 1-back,5.979886545454544,,
423,3F,106,Vexing 3-back,5.654481647940075,,
424,3F,107,Calming 1-back,5.620614513108613,,
425,3F,107,Calming 3-back,5.641313276836158,,
426,3F,107,Vexing 1-back,5.98347,,
427,3F,107,Vexing 3-back,5.641461874431301,,
428,3F,108,Calming 1-back,5.604873664479849,,
429,3F,108,Calming 3-back,5.641276056338027,,
430,3F,108,Vexing 1-back,5.9485091324200905,,
431,3F,108,Vexing 3-back,5.6297995155038745,,
432,3F,109,Calming 1-back,5.591716984559492,,
433,3F,109,Calming 3-back,5.618708131655372,,
434,3F,109,Vexing 1-back,5.905440561471441,,
435,3F,109,Vexing 3-back,5.6166743403093715,,
436,3F,110,Calming 1-back,5.567569504209541,,
437,3F,110,Calming 3-back,5.612569765258216,,
438,3F,110,Vexing 1-back,5.866894482090997,,
439,3F,110,Vexing 3-back,5.646950545454545,,
440,3F,111,Calming 1-back,5.703288422971741,,
441,3F,111,Calming 3-back,5.458000387221685,,
442,3F,111,Vexing 1-back,5.707465135895032,,
443,3F,111,Vexing 3-back,5.7221853817504655,,
444,3F,112,Calming 1-back,5.6789522471910105,,
445,3F,112,Calming 3-back,5.469872894482092,,
446,3F,112,Vexing 1-back,5.813645641986879,,
447,3F,112,Vexing 3-back,5.703639691189827,,
448,3F,113,Calming 1-back,5.66600496719775,,
449,3F,113,Calming 3-back,5.482487910028117,,
450,3F,113,Vexing 1-back,5.781475257731959,,
451,3F,113,Vexing 3-back,5.6843978484565,,
452,3F,114,Calming 1-back,5.666102151543499,,
453,3F,114,Calming 3-back,5.470017027281279,,
454,3F,114,Vexing 1-back,5.722760987415295,,
455,3F,114,Vexing 3-back,5.654394741784037,,
456,3F,115,Calming 1-back,5.649022846441946,,
457,3F,115,Calming 3-back,5.466364540337711,,
458,3F,115,Vexing 1-back,5.6495841545893715,,
459,3F,115,Vexing 3-back,5.633784990619136,,
460,3F,116,Calming 1-back,5.624883212341197,,
461,3F,116,Calming 3-back,5.452817260787993,,
462,3F,116,Vexing 1-back,5.587184284377923,,
463,3F,116,Vexing 3-back,5.606063261480786,,
464,3F,117,Calming 1-back,5.614141513094083,,
465,3F,117,Calming 3-back,5.4455530075187975,,
466,3F,117,Vexing 1-back,5.630548499061913,,
467,3F,117,Vexing 3-back,5.5886513564078575,,
468,3F,118,Calming 1-back,5.6296785583941595,,
469,3F,118,Calming 3-back,5.43448821866164,,
470,3F,118,Vexing 1-back,5.878423214285714,,
471,3F,118,Vexing 3-back,5.567691815616181,,
472,3F,119,Calming 1-back,5.614278256794751,,
473,3F,119,Calming 3-back,5.421677788554802,,
474,3F,119,Vexing 1-back,5.937425420560747,,
475,3F,119,Vexing 3-back,5.555714620431115,,
476,3F,120,Calming 1-back,5.482404254920337,,
477,3F,120,Calming 3-back,5.4099523452157605,,
478,3F,120,Vexing 1-back,5.900047887323943,,
479,3F,120,Vexing 3-back,5.543209082397004,,
480,3F,121,Calming 1-back,5.580292797006548,,
481,3F,121,Calming 3-back,5.409231954887218,,
482,3F,121,Vexing 1-back,5.9120073170731695,,
483,3F,121,Vexing 3-back,5.531216588566073,,
484,3F,122,Calming 1-back,5.557207303370787,,
485,3F,122,Calming 3-back,5.398180563380282,,
486,3F,122,Vexing 1-back,5.8480956807511735,,
487,3F,122,Vexing 3-back,5.51894296435272,,
488,3F,123,Calming 1-back,5.555510714285714,,
489,3F,123,Calming 3-back,5.396535051546391,,
490,3F,123,Vexing 1-back,5.768732977691561,,
491,3F,123,Vexing 3-back,5.506767000000001,,
492,3F,124,Calming 1-back,5.543196819457437,,
493,3F,124,Calming 3-back,5.386325117150891,,
494,3F,124,Vexing 1-back,5.69299469623915,,
495,3F,124,Vexing 3-back,5.482691651031895,,
496,3F,125,Calming 1-back,5.531304784240151,,
497,3F,125,Calming 3-back,5.383795277020891,,
498,3F,125,Vexing 1-back,5.630809099709584,,
499,3F,125,Vexing 3-back,5.479603748828492,,
500,3F,126,Calming 1-back,5.518681050656661,,
501,3F,126,Calming 3-back,5.3736996240601504,,
502,3F,126,Vexing 1-back,5.6169396616541345,,
503,3F,126,Vexing 3-back,5.55515729468599,,
504,3F,127,Calming 1-back,5.507748638838476,,
505,3F,127,Calming 3-back,5.373731894934334,,
506,3F,127,Vexing 1-back,5.678191838649155,,
507,3F,127,Vexing 3-back,5.56782589118199,,
508,3F,128,Calming 1-back,5.502876454545455,,
509,3F,128,Calming 3-back,5.373665915492958,,
510,3F,128,Vexing 1-back,5.679281346678798,,
511,3F,128,Vexing 3-back,5.555777132146204,,
512,3F,129,Calming 1-back,5.49144790909091,,
513,3F,129,Calming 3-back,5.362827145522387,,
514,3F,129,Vexing 1-back,5.6615176363636355,,
515,3F,129,Vexing 3-back,5.53135323943662,,
516,3F,130,Calming 1-back,5.481498999090083,,
517,3F,130,Calming 3-back,5.357805591798695,,
518,3F,130,Vexing 1-back,5.634820524835988,,
519,3F,130,Vexing 3-back,5.507603578336557,,
520,3F,131,Calming 1-back,5.516170454545455,,
521,3F,131,Calming 3-back,5.2990544517338325,,
522,3F,131,Vexing 1-back,5.587288836772983,,
523,3F,131,Vexing 3-back,5.476249273959342,,
524,3F,132,Calming 1-back,5.530499908842297,,
525,3F,132,Calming 3-back,5.29901558685446,,
526,3F,132,Vexing 1-back,5.555825140712946,,
527,3F,132,Vexing 3-back,5.46328954501452,,
528,3F,133,Calming 1-back,5.379022222222223,,
529,3F,133,Calming 3-back,5.626408801498127,,
530,3F,133,Vexing 1-back,5.862979345794392,,
531,3F,133,Vexing 3-back,6.531569765258217,,
532,3F,134,Calming 1-back,5.398132332332333,,
533,3F,134,Calming 3-back,5.735826522961575,,
534,3F,134,Vexing 1-back,5.8179835680751175,,
535,3F,134,Vexing 3-back,6.6721078007518795,,
536,3F,135,Calming 1-back,5.388425968992248,,
537,3F,135,Calming 3-back,5.658442144873,,
538,3F,135,Vexing 1-back,5.799011621368322,,
539,3F,135,Vexing 3-back,6.599406582768636,,
540,3F,136,Calming 1-back,5.384564037558685,,
541,3F,136,Calming 3-back,5.703243796992481,,
542,3F,136,Vexing 1-back,5.76625145267104,,
543,3F,136,Vexing 3-back,6.3856730769230765,,
544,3F,137,Calming 1-back,5.373641723136495,,
545,3F,137,Calming 3-back,5.703248599033816,,
546,3F,137,Vexing 1-back,5.730327067669172,,
547,3F,137,Vexing 3-back,6.206429737335835,,
548,3F,138,Calming 1-back,5.361360018726591,,
549,3F,138,Calming 3-back,5.752658724202627,,
550,3F,138,Vexing 1-back,5.7036365258215955,,
551,3F,138,Vexing 3-back,6.057038275193798,,
552,3F,139,Calming 1-back,5.348803842549203,,
553,3F,139,Calming 3-back,5.739815557638238,,
554,3F,139,Vexing 1-back,5.679150259067358,,
555,3F,139,Vexing 3-back,5.966159512652296,,
556,3F,140,Calming 1-back,5.342993908153702,,
557,3F,140,Calming 3-back,5.688025145067698,,
558,3F,140,Vexing 1-back,5.665526205641491,,
559,3F,140,Vexing 3-back,5.892046459747817,,
560,3F,141,Calming 1-back,5.336547725072604,,
561,3F,141,Calming 3-back,5.629668228678538,,
562,3F,141,Vexing 1-back,5.671207857811037,,
563,3F,141,Vexing 3-back,5.835190763430726,,
564,3F,142,Calming 1-back,5.323633176691729,,
565,3F,142,Calming 3-back,5.581798547918684,,
566,3F,142,Vexing 1-back,5.728176011288805,,
567,3F,142,Vexing 3-back,5.777240785781103,,
568,3F,143,Calming 1-back,5.312044007490638,,
569,3F,143,Calming 3-back,5.555582751937984,,
570,3F,143,Vexing 1-back,5.715391439322672,,
571,3F,143,Vexing 3-back,5.741362923523718,,
572,3F,144,Calming 1-back,5.312043064985451,,
573,3F,144,Calming 3-back,5.531110373831776,,
574,3F,144,Vexing 1-back,5.715330243445692,,
575,3F,144,Vexing 3-back,5.723536637512147,,
576,3F,145,Calming 1-back,5.2989488742964355,,
577,3F,145,Calming 3-back,5.504237183098591,,
578,3F,145,Vexing 1-back,5.728132634457612,,
579,3F,145,Vexing 3-back,5.9503791393826,,
580,3F,146,Calming 1-back,5.29884038647343,,
581,3F,146,Calming 3-back,5.470423017408124,,
582,3F,146,Vexing 1-back,5.7115872727272725,,
583,3F,146,Vexing 3-back,6.140504686035615,,
584,3F,147,Calming 1-back,5.299014811229429,,
585,3F,147,Calming 3-back,5.458113402061857,,
586,3F,147,Vexing 1-back,5.654469936421434,,
587,3F,147,Vexing 3-back,6.1374080827067665,,
588,3F,148,Calming 1-back,5.287061941747574,,
589,3F,148,Calming 3-back,5.458019962511715,,
590,3F,148,Vexing 1-back,5.690042440801457,,
591,3F,148,Vexing 3-back,6.053277250726041,,
592,3F,149,Calming 1-back,5.287230560928434,,
593,3F,149,Calming 3-back,5.443075820056233,,
594,3F,149,Vexing 1-back,5.706410516431925,,
595,3F,149,Vexing 3-back,5.9793963178294565,,
596,3F,150,Calming 1-back,5.278208809293321,,
597,3F,150,Calming 3-back,5.423548547328959,,
598,3F,150,Vexing 1-back,5.744460281690142,,
599,3F,150,Vexing 3-back,5.905409486931267,,
600,3F,151,Calming 1-back,5.27452227443609,,
601,3F,151,Calming 3-back,5.413724788732394,,
602,3F,151,Vexing 1-back,5.656124954462659,,
603,3F,151,Vexing 3-back,5.850792374517374,,
604,3F,152,Calming 1-back,5.286730581613509,,
605,3F,152,Calming 3-back,5.40142779342723,,
606,3F,152,Vexing 1-back,5.612659945504086,,
607,3F,152,Vexing 3-back,5.803260676328502,,
608,3F,153,Calming 1-back,5.323807202993451,,
609,3F,153,Calming 3-back,5.393996998123828,,
610,3F,153,Vexing 1-back,5.569882645403377,,
611,3F,153,Vexing 3-back,5.760830954676952,,
612,3F,154,Calming 1-back,5.323592703461178,,
613,3F,154,Calming 3-back,5.386097560975609,,
614,3F,154,Vexing 1-back,5.580303727272727,,
615,3F,154,Vexing 3-back,5.728361665053242,,
616,3F,155,Calming 1-back,5.146702624179944,,
617,3F,155,Calming 3-back,5.6287579981290925,,
618,3F,155,Vexing 1-back,6.036852666043031,,
619,3F,155,Vexing 3-back,5.580249564375606,,
620,3F,156,Calming 1-back,5.186836396724294,,
621,3F,156,Calming 3-back,5.892617481203007,,
622,3F,156,Vexing 1-back,6.1787111632270175,,
623,3F,156,Vexing 3-back,5.555797936210131,,
624,3F,157,Calming 1-back,5.348421702525725,,
625,3F,157,Calming 3-back,5.897271763602251,,
626,3F,157,Vexing 1-back,6.3730411985018725,,
627,3F,157,Vexing 3-back,5.543958871701548,,
628,3F,158,Calming 1-back,5.448869244767971,,
629,3F,158,Calming 3-back,5.785643636363636,,
630,3F,158,Vexing 1-back,6.3695893058161355,,
631,3F,158,Vexing 3-back,5.516996995305164,,
632,3F,159,Calming 1-back,5.4220150890346765,,
633,3F,159,Calming 3-back,5.696942727272727,,
634,3F,159,Vexing 1-back,6.291320544090056,,
635,3F,159,Vexing 3-back,5.474270346117868,,
636,3F,160,Calming 1-back,5.358729881925523,,
637,3F,160,Calming 3-back,5.622168037383177,,
638,3F,160,Vexing 1-back,6.20369119070668,,
639,3F,160,Vexing 3-back,5.44579455399061,,
640,3F,161,Calming 1-back,5.298539456419869,,
641,3F,161,Calming 3-back,5.565773664479851,,
642,3F,161,Vexing 1-back,6.12375234521576,,
643,3F,161,Vexing 3-back,5.432722003745319,,
644,3F,162,Calming 1-back,5.25658787593985,,
645,3F,162,Calming 3-back,5.525653187613844,,
646,3F,162,Vexing 1-back,6.048621126760564,,
647,3F,162,Vexing 3-back,5.422785336976321,,
648,3F,163,Calming 1-back,5.233474154135338,,
649,3F,163,Calming 3-back,5.482277808988765,,
650,3F,163,Vexing 1-back,6.159108502415459,,
651,3F,163,Vexing 3-back,5.4218208997188375,,
652,3F,164,Calming 1-back,5.21386224588577,,
653,3F,164,Calming 3-back,5.46360225140713,,
654,3F,164,Vexing 1-back,6.146321974830592,,
655,3F,164,Vexing 3-back,5.410213870665417,,
656,3F,165,Calming 1-back,5.164564569215876,,
657,3F,165,Calming 3-back,5.44359531835206,,
658,3F,165,Vexing 1-back,6.077460262417995,,
659,3F,165,Vexing 3-back,5.401258664085189,,
660,3F,166,Calming 1-back,5.139953727008713,,
661,3F,166,Calming 3-back,5.4277901685393255,,
662,3F,166,Vexing 1-back,6.020058309859154,,
663,3F,166,Vexing 3-back,5.652052676056338,,
664,3F,167,Calming 1-back,5.114959438528557,,
665,3F,167,Calming 3-back,5.409879154929578,,
666,3F,167,Vexing 1-back,6.0005805043646925,,
667,3F,167,Vexing 3-back,5.940422752808988,,
668,3F,168,Calming 1-back,5.097592746615087,,
669,3F,168,Calming 3-back,5.39603759057971,,
670,3F,168,Vexing 1-back,5.952068416119962,,
671,3F,168,Vexing 3-back,6.312616839134525,,
672,3F,169,Calming 1-back,5.079260987415295,,
673,3F,169,Calming 3-back,5.375167788898999,,
674,3F,169,Vexing 1-back,5.912485046728971,,
675,3F,169,Vexing 3-back,6.530625338491296,,
676,3F,170,Calming 1-back,5.06533775411423,,
677,3F,170,Calming 3-back,5.368825976385104,,
678,3F,170,Vexing 1-back,5.974066636446055,,
679,3F,170,Vexing 3-back,6.489097177798684,,
680,3F,171,Calming 1-back,5.052727206551411,,
681,3F,171,Calming 3-back,5.355923139745917,,
682,3F,171,Vexing 1-back,5.993538122065727,,
683,3F,171,Vexing 3-back,6.631660116166506,,
684,3F,172,Calming 1-back,5.052688868101029,,
685,3F,172,Calming 3-back,5.348884671532846,,
686,3F,172,Vexing 1-back,5.999188742964352,,
687,3F,172,Vexing 3-back,6.59973292682927,,
688,3F,173,Calming 1-back,5.043053658536586,,
689,3F,173,Calming 3-back,5.334992196007259,,
690,3F,173,Vexing 1-back,5.9747490445859865,,
691,3F,173,Vexing 3-back,6.479515894641235,,
692,3F,174,Calming 1-back,5.040286116322702,,
693,3F,174,Calming 3-back,5.313052,,
694,3F,174,Vexing 1-back,5.974928169014084,,
695,3F,174,Vexing 3-back,6.378496626054357,,
696,3F,175,Calming 1-back,5.065246454545455,,
697,3F,175,Calming 3-back,5.312208561020037,,
698,3F,175,Vexing 1-back,5.975330834114339,,
699,3F,175,Vexing 3-back,6.277363014981274,,
700,3F,176,Calming 1-back,5.077643272023233,,
701,3F,176,Calming 3-back,5.312182099343954,,
702,3F,176,Vexing 1-back,5.955678121974831,,
703,3F,176,Vexing 3-back,6.1694124765478415,,
704,4F,1,Calming 1-back,2.759301603206413,0.8636363636363636,265.95454545454544
705,4F,1,Calming 3-back,2.7241472300469485,,
706,4F,1,Vexing 1-back,2.5710236205227495,0.9090909090909091,325.77272727272725
707,4F,1,Vexing 3-back,2.79746573088093,,
708,4F,2,Calming 1-back,2.72277967967968,,
709,4F,2,Calming 3-back,2.722783943661972,0.5454545454545454,582.1818181818181
710,4F,2,Vexing 1-back,2.6417649564375605,,
711,4F,2,Vexing 3-back,2.8217609284332683,0.5454545454545454,360.27272727272725
712,4F,3,Calming 1-back,2.7100518000000005,,
713,4F,3,Calming 3-back,2.7227844131455408,0.6363636363636364,317.59090909090907
714,4F,3,Vexing 1-back,2.673038370846731,0.8181818181818182,280.77272727272725
715,4F,3,Vexing 3-back,2.8146608906098747,,
716,4F,4,Calming 1-back,2.74047947947948,0.9090909090909091,357.04545454545456
717,4F,4,Calming 3-back,2.709958348968106,,
718,4F,4,Vexing 1-back,2.6730998887652953,,
719,4F,4,Vexing 3-back,2.816443949661181,0.6818181818181818,185.4090909090909
720,4F,5,Calming 1-back,2.7849515,,
721,4F,5,Calming 3-back,2.7099004690431525,0.45454545454545453,460.6818181818182
722,4F,5,Vexing 1-back,2.6728445169712796,0.7727272727272727,278.8181818181818
723,4F,5,Vexing 3-back,2.8462792836398836,,
724,4F,6,Calming 1-back,2.8314570599613154,0.5909090909090909,251.1818181818182
725,4F,6,Calming 3-back,2.7098651031894936,,
726,4F,6,Vexing 1-back,2.66074182194617,,
727,4F,6,Vexing 3-back,2.8532398838334943,0.6818181818181818,271.8636363636364
728,4F,7,Calming 1-back,2.938911337209302,0.9545454545454546,279.1818181818182
729,4F,7,Calming 3-back,2.709250796626055,,
730,4F,7,Vexing 1-back,2.6484848000000003,0.7272727272727273,224.13636363636363
731,4F,7,Vexing 3-back,2.8461691190706677,,
732,4F,8,Calming 1-back,2.9813067763794767,,
733,4F,8,Calming 3-back,2.7096161199625124,0.6818181818181818,332.90909090909093
734,4F,8,Vexing 1-back,2.6361058746736297,,
735,4F,8,Vexing 3-back,2.833746079380445,0.6818181818181818,307.95454545454544
736,4F,9,Calming 1-back,2.9945926356589148,,
737,4F,9,Calming 3-back,2.699156554307116,,
738,4F,9,Vexing 1-back,2.6204038684719535,,
739,4F,9,Vexing 3-back,2.8094526621490803,,
740,4F,10,Calming 1-back,2.980669990319458,,
741,4F,10,Calming 3-back,2.6975960637300846,0.6363636363636364,445.8636363636364
742,4F,10,Vexing 1-back,2.599850290135396,0.7727272727272727,291.59090909090907
743,4F,10,Vexing 3-back,2.797188480154889,,
744,4F,11,Calming 1-back,2.9445731759656644,0.9090909090909091,256.95454545454544
745,4F,11,Calming 3-back,2.697615585672798,,
746,4F,11,Vexing 1-back,2.5873310559006213,,
747,4F,11,Vexing 3-back,2.7844962245885774,0.7272727272727273,347.09090909090907
748,4F,12,Calming 1-back,2.920057874396135,0.9090909090909091,238.0
749,4F,12,Calming 3-back,2.68531403678606,,
750,4F,12,Vexing 1-back,2.574953242981607,,
751,4F,12,Vexing 3-back,2.772308228460794,0.6363636363636364,322.6363636363636
752,4F,13,Calming 1-back,2.8968467507274487,,
753,4F,13,Calming 3-back,2.6849450145208134,0.6363636363636364,369.6363636363636
754,4F,13,Vexing 1-back,2.5638065149948295,0.8181818181818182,249.22727272727272
755,4F,13,Vexing 3-back,2.770634365924492,,
756,4F,14,Calming 1-back,2.8771482090997096,,
757,4F,14,Calming 3-back,2.6850299128751214,0.6363636363636364,294.90909090909093
758,4F,14,Vexing 1-back,2.5667761428571434,,
759,4F,14,Vexing 3-back,2.759296902226525,0.5909090909090909,299.6818181818182
760,4F,15,Calming 1-back,2.858187054409006,0.7727272727272727,315.95454545454544
761,4F,15,Calming 3-back,2.6849904162633114,,
762,4F,15,Vexing 1-back,2.5627588235294123,0.8181818181818182,251.1818181818182
763,4F,15,Vexing 3-back,2.7450925459825757,,
764,4F,16,Calming 1-back,2.8461178069353323,,
765,4F,16,Calming 3-back,2.684917823639775,0.4090909090909091,397.1363636363636
766,4F,16,Vexing 1-back,2.5506060019361088,,
767,4F,16,Vexing 3-back,2.7225405614714426,0.0,265.04545454545456
768,4F,17,Calming 1-back,2.833749718574109,0.9090909090909091,299.1363636363636
769,4F,17,Calming 3-back,2.6850041237113405,,
770,4F,17,Vexing 1-back,2.5506622722400865,0.8636363636363636,255.72727272727272
771,4F,17,Vexing 3-back,2.722685769603098,,
772,4F,18,Calming 1-back,2.8218129593810444,,
773,4F,18,Calming 3-back,2.680018462980319,,
774,4F,18,Vexing 1-back,2.5451488867376577,,
775,4F,18,Vexing 3-back,2.7182224588576966,,
776,4F,19,Calming 1-back,2.8096028046421666,,
777,4F,19,Calming 3-back,2.6730175048355904,,
778,4F,19,Vexing 1-back,2.538379717813051,,
779,4F,19,Vexing 3-back,2.7096749516441014,,
780,4F,20,Calming 1-back,2.797363937823834,,
781,4F,20,Calming 3-back,2.6730089034676667,,
782,4F,20,Vexing 1-back,2.5257931654676264,,
783,4F,20,Vexing 3-back,2.709813746369797,,
784,4F,21,Calming 1-back,2.7846004840271052,,
785,4F,21,Calming 3-back,2.672775234521576,,
786,4F,21,Vexing 1-back,2.5260033881897392,,
787,4F,21,Vexing 3-back,2.7099121006776383,,
788,4F,22,Calming 1-back,2.7845152034261242,,
789,4F,22,Calming 3-back,2.660669072164949,,
790,4F,22,Vexing 1-back,2.5258289838337187,,
791,4F,22,Vexing 3-back,2.699040948693127,,
792,4F,23,Calming 1-back,2.5381968075117376,,
793,4F,23,Calming 3-back,2.63612755388941,,
794,4F,23,Vexing 1-back,3.1648932301740813,,
795,4F,23,Vexing 3-back,2.9941541142303967,,
796,4F,24,Calming 1-back,2.5381689493433397,,
797,4F,24,Calming 3-back,2.648591763565892,,
798,4F,24,Vexing 1-back,3.1757373668925455,,
799,4F,24,Vexing 3-back,2.981373210831721,,
800,4F,25,Calming 1-back,2.5257157640232113,,
801,4F,25,Calming 3-back,2.6483423617619497,,
802,4F,25,Vexing 1-back,3.1522579864472413,,
803,4F,25,Vexing 3-back,2.969512391093901,,
804,4F,26,Calming 1-back,2.525777861163227,,
805,4F,26,Calming 3-back,2.636252545454546,,
806,4F,26,Vexing 1-back,3.13986218487395,,
807,4F,26,Vexing 3-back,2.992371760154739,,
808,4F,27,Calming 1-back,2.5258373358348964,,
809,4F,27,Calming 3-back,2.6325194939081538,,
810,4F,27,Vexing 1-back,3.1398592449177154,,
811,4F,27,Vexing 3-back,3.0176595353339786,,
812,4F,28,Calming 1-back,2.5148485963213942,,
813,4F,28,Calming 3-back,2.624367545454546,,
814,4F,28,Vexing 1-back,3.1281504201680668,,
815,4F,28,Vexing 3-back,3.016176089060987,,
816,4F,29,Calming 1-back,2.513219089147287,,
817,4F,29,Calming 3-back,2.6242881125226862,,
818,4F,29,Vexing 1-back,3.128026032540676,,
819,4F,29,Vexing 3-back,3.0109939012584706,,
820,4F,30,Calming 1-back,2.513170474346564,,
821,4F,30,Calming 3-back,2.6241570000000007,,
822,4F,30,Vexing 1-back,3.1038428848015487,,
823,4F,30,Vexing 3-back,3.00659651500484,,
824,4F,31,Calming 1-back,2.5109847608453846,,
825,4F,31,Calming 3-back,2.6231656982193066,,
826,4F,31,Vexing 1-back,3.077898935140368,,
827,4F,31,Vexing 3-back,2.994901355275896,,
828,4F,32,Calming 1-back,2.5003439922480624,,
829,4F,32,Calming 3-back,2.6244734082397008,,
830,4F,32,Vexing 1-back,3.057840222222222,,
831,4F,32,Vexing 3-back,2.9814185866408516,,
832,4F,33,Calming 1-back,2.5001974806201552,,
833,4F,33,Calming 3-back,2.612203759398496,,
834,4F,33,Vexing 1-back,3.04619964028777,,
835,4F,33,Vexing 3-back,2.9693991111111107,,
836,4F,34,Calming 1-back,2.500236011616651,,
837,4F,34,Calming 3-back,2.612104162633108,,
838,4F,34,Vexing 1-back,3.0189857696030975,,
839,4F,34,Vexing 3-back,2.9506908999999997,,
840,4F,35,Calming 1-back,2.5125122500000003,,
841,4F,35,Calming 3-back,2.6121579737335834,,
842,4F,35,Vexing 1-back,3.018230042918455,,
843,4F,35,Vexing 3-back,2.944491005802707,,
844,4F,36,Calming 1-back,2.500605319148937,,
845,4F,36,Calming 3-back,2.599863188405797,,
846,4F,36,Vexing 1-back,3.0065002400960386,,
847,4F,36,Vexing 3-back,2.9443260154738873,,
848,4F,37,Calming 1-back,2.5003983558994203,,
849,4F,37,Calming 3-back,2.5997225338491297,,
850,4F,37,Vexing 1-back,2.9955172877846787,,
851,4F,37,Vexing 3-back,2.941558607350096,,
852,4F,38,Calming 1-back,2.5005015015015015,,
853,4F,38,Calming 3-back,2.5998357833655708,,
854,4F,38,Vexing 1-back,2.9948379351740693,,
855,4F,38,Vexing 3-back,2.9317953533397865,,
856,4F,39,Calming 1-back,2.4883107558139543,,
857,4F,39,Calming 3-back,2.5878939980638918,,
858,4F,39,Vexing 1-back,2.9856369796708613,,
859,4F,39,Vexing 3-back,2.931194578896417,,
860,4F,40,Calming 1-back,2.488396611810262,,
861,4F,40,Calming 3-back,2.587340406976744,,
862,4F,40,Vexing 1-back,2.9846026410564224,,
863,4F,40,Vexing 3-back,2.9318119999999994,,
864,4F,41,Calming 1-back,2.4882997098646036,,
865,4F,41,Calming 3-back,2.587303872216844,,
866,4F,41,Vexing 1-back,2.9789762826718293,,
867,4F,41,Vexing 3-back,2.919817517517517,,
868,4F,42,Calming 1-back,2.475722189922481,,
869,4F,42,Calming 3-back,2.5749590106007068,,
870,4F,42,Vexing 1-back,2.9695780251694095,,
871,4F,42,Vexing 3-back,2.9106894584139256,,
872,4F,43,Calming 1-back,2.4756303000968063,,
873,4F,43,Calming 3-back,2.5872056147144233,,
874,4F,43,Vexing 1-back,2.9567766698935136,,
875,4F,43,Vexing 3-back,2.907622722722722,,
876,4F,44,Calming 1-back,2.475076111685626,,
877,4F,44,Calming 3-back,2.5504932944606415,,
878,4F,44,Vexing 1-back,2.9568309777347523,,
879,4F,44,Vexing 3-back,2.8953858999999995,,
880,4F,45,Calming 1-back,2.3303090029041624,,
881,4F,45,Calming 3-back,2.4394875000000007,,
882,4F,45,Vexing 1-back,2.8706051999999995,,
883,4F,45,Vexing 3-back,3.212898454545454,,
884,4F,46,Calming 1-back,2.3303824782187794,,
885,4F,46,Calming 3-back,2.4397221684414334,,
886,4F,46,Vexing 1-back,2.8706728831725608,,
887,4F,46,Vexing 3-back,3.2002864668483193,,
888,4F,47,Calming 1-back,2.330421276595744,,
889,4F,47,Calming 3-back,2.426881818181818,,
890,4F,47,Vexing 1-back,2.8705521939953806,,
891,4F,47,Vexing 3-back,3.1888824742268036,,
892,4F,48,Calming 1-back,2.3185583333333333,,
893,4F,48,Calming 3-back,2.415006395348837,,
894,4F,48,Vexing 1-back,2.858076726726727,,
895,4F,48,Vexing 3-back,3.178781595648232,,
896,4F,49,Calming 1-back,2.3181669793621014,,
897,4F,49,Calming 3-back,2.4148533333333333,,
898,4F,49,Vexing 1-back,2.8544045548654244,,
899,4F,49,Vexing 3-back,3.164020218579235,,
900,4F,50,Calming 1-back,2.3181015962441314,,
901,4F,50,Calming 3-back,2.414907550822846,,
902,4F,50,Vexing 1-back,2.8581021250000003,,
903,4F,50,Vexing 3-back,3.150141545454545,,
904,4F,51,Calming 1-back,2.318156419868791,,
905,4F,51,Calming 3-back,2.402267988394584,,
906,4F,51,Vexing 1-back,2.90399343955014,,
907,4F,51,Vexing 3-back,3.1277189493433397,,
908,4F,52,Calming 1-back,2.307477153558052,,
909,4F,52,Calming 3-back,2.4022705711519845,,
910,4F,52,Vexing 1-back,2.9234402088772846,,
911,4F,52,Vexing 3-back,3.1161779962546814,,
912,4F,53,Calming 1-back,2.306043098591549,,
913,4F,53,Calming 3-back,2.402235253456221,,
914,4F,53,Vexing 1-back,2.931567908902691,,
915,4F,53,Vexing 3-back,3.1036462546816477,,
916,4F,54,Calming 1-back,2.306159887535145,,
917,4F,54,Calming 3-back,2.3902394584139266,,
918,4F,54,Vexing 1-back,2.9294697749196135,,
919,4F,54,Vexing 3-back,3.0919160000000003,,
920,4F,55,Calming 1-back,2.3059683446272983,,
921,4F,55,Calming 3-back,2.390268697282099,,
922,4F,55,Vexing 1-back,2.9198380445304934,,
923,4F,55,Vexing 3-back,3.0790776735459664,,
924,4F,56,Calming 1-back,2.293851779026217,,
925,4F,56,Calming 3-back,2.3901908034849955,,
926,4F,56,Vexing 1-back,2.907843928035982,,
927,4F,56,Vexing 3-back,3.0672759137769448,,
928,4F,57,Calming 1-back,2.2936782529572337,,
929,4F,57,Calming 3-back,2.3789056147144234,,
930,4F,57,Vexing 1-back,2.895557310704961,,
931,4F,57,Vexing 3-back,3.055260577819199,,
932,4F,58,Calming 1-back,2.293682181818182,,
933,4F,58,Calming 3-back,2.377964278799612,,
934,4F,58,Vexing 1-back,2.895519748305904,,
935,4F,58,Vexing 3-back,3.0435963636363637,,
936,4F,59,Calming 1-back,2.2816888080072792,,
937,4F,59,Calming 3-back,2.37782746615087,,
938,4F,59,Vexing 1-back,2.882888480154888,,
939,4F,59,Vexing 3-back,3.0309074108818015,,
940,4F,60,Calming 1-back,2.2817832575068246,,
941,4F,60,Calming 3-back,2.377788286544046,,
942,4F,60,Vexing 1-back,2.870742380422692,,
943,4F,60,Vexing 3-back,3.0192158878504674,,
944,4F,61,Calming 1-back,2.2777336557059957,,
945,4F,61,Calming 3-back,2.377707170542635,,
946,4F,61,Vexing 1-back,2.9698006769825915,,
947,4F,61,Vexing 3-back,3.010780355472404,,
948,4F,62,Calming 1-back,2.2700122838944496,,
949,4F,62,Calming 3-back,2.366646079380445,,
950,4F,62,Vexing 1-back,2.9693907673860904,,
951,4F,62,Vexing 3-back,3.0065636363636368,,
952,4F,63,Calming 1-back,2.270014181818182,,
953,4F,63,Calming 3-back,2.3666289448209095,,
954,4F,63,Vexing 1-back,2.9705357357357354,,
955,4F,63,Vexing 3-back,2.994738403755868,,
956,4F,64,Calming 1-back,2.26581889191644,,
957,4F,64,Calming 3-back,2.3666932236205223,,
958,4F,64,Vexing 1-back,2.9811754999999995,,
959,4F,64,Vexing 3-back,2.9946865086599814,,
960,4F,65,Calming 1-back,2.2577813320825513,,
961,4F,65,Calming 3-back,2.355624274661508,,
962,4F,65,Vexing 1-back,2.981389509536785,,
963,4F,65,Vexing 3-back,2.994631898971001,,
964,4F,66,Calming 1-back,2.257347191011236,,
965,4F,66,Calming 3-back,2.3547319767441857,,
966,4F,66,Vexing 1-back,2.969424685382381,,
967,4F,66,Vexing 3-back,2.9813813706563703,,
968,4F,67,Calming 1-back,2.220834849951597,,
969,4F,67,Calming 3-back,2.154148015488867,,
970,4F,67,Vexing 1-back,3.4846496124031012,,
971,4F,67,Vexing 3-back,3.1036860329776914,,
972,4F,68,Calming 1-back,2.220913776944705,,
973,4F,68,Calming 3-back,2.1463359420289856,,
974,4F,68,Vexing 1-back,3.53250742481203,,
975,4F,68,Vexing 3-back,3.0970953443258975,,
976,4F,69,Calming 1-back,2.2209013120899717,,
977,4F,69,Calming 3-back,2.1465135396518376,,
978,4F,69,Vexing 1-back,3.5326175965665243,,
979,4F,69,Vexing 3-back,3.09182633552015,,
980,4F,70,Calming 1-back,2.2209697999999993,,
981,4F,70,Calming 3-back,2.146567408123791,,
982,4F,70,Vexing 1-back,3.507961178671656,,
983,4F,70,Vexing 3-back,3.0916163785259325,,
984,4F,71,Calming 1-back,2.2191190891472865,,
985,4F,71,Calming 3-back,2.136925363020329,,
986,4F,71,Vexing 1-back,3.465586842105263,,
987,4F,71,Vexing 3-back,3.091743327067669,,
988,4F,72,Calming 1-back,2.2085665697674415,,
989,4F,72,Calming 3-back,2.13390667311412,,
990,4F,72,Vexing 1-back,3.417768990384616,,
991,4F,72,Vexing 3-back,3.0918198451113263,,
992,4F,73,Calming 1-back,2.20858175270108,,
993,4F,73,Calming 3-back,2.1325220502901354,,
994,4F,73,Vexing 1-back,3.3786992255566317,,
995,4F,73,Vexing 3-back,3.091692589118199,,
996,4F,74,Calming 1-back,2.208572286821705,,
997,4F,74,Calming 3-back,2.1223790135396516,,
998,4F,74,Vexing 1-back,3.3367561529271206,,
999,4F,74,Vexing 3-back,3.091984615384615,,
1000,4F,75,Calming 1-back,2.199916216216216,,
1001,4F,75,Calming 3-back,2.124365600775193,,
1002,4F,75,Vexing 1-back,3.3119210131332086,,
1003,4F,75,Vexing 3-back,3.091792488262911,,
1004,4F,76,Calming 1-back,2.203384083044982,,
1005,4F,76,Calming 3-back,2.1249061855670104,,
1006,4F,76,Vexing 1-back,3.2867610038610047,,
1007,4F,76,Vexing 3-back,3.0853434656340752,,
1008,4F,77,Calming 1-back,2.1955990328820114,,
1009,4F,77,Calming 3-back,2.1093354264292405,,
1010,4F,77,Vexing 1-back,3.26182839737582,,
1011,4F,77,Vexing 3-back,3.0790242509363295,,
1012,4F,78,Calming 1-back,2.195692642787996,,
1013,4F,78,Calming 3-back,2.1095300187617263,,
1014,4F,78,Vexing 1-back,3.2493950374531835,,
1015,4F,78,Vexing 3-back,3.073949530956848,,
1016,4F,79,Calming 1-back,2.182964859632139,,
1017,4F,79,Calming 3-back,2.109469670542635,,
1018,4F,79,Vexing 1-back,3.233846103286385,,
1019,4F,79,Vexing 3-back,3.0669234723569354,,
1020,4F,80,Calming 1-back,2.1830424554826613,,
1021,4F,80,Calming 3-back,2.0996059108527128,,
1022,4F,80,Vexing 1-back,3.2248028000000004,,
1023,4F,80,Vexing 3-back,3.0670984022556396,,
1024,4F,81,Calming 1-back,2.182853658536585,,
1025,4F,81,Calming 3-back,2.0974292069632487,,
1026,4F,81,Vexing 1-back,3.2125636022514072,,
1027,4F,81,Vexing 3-back,3.064233462657614,,
1028,4F,82,Calming 1-back,2.183052131782945,,
1029,4F,82,Calming 3-back,2.0973955909943713,,
1030,4F,82,Vexing 1-back,3.200315072463768,,
1031,4F,82,Vexing 3-back,3.0552267790262175,,
1032,4F,83,Calming 1-back,2.1713500499500498,,
1033,4F,83,Calming 3-back,2.097403561387066,,
1034,4F,83,Vexing 1-back,3.1886249317561415,,
1035,4F,83,Vexing 3-back,3.055075561797753,,
1036,4F,84,Calming 1-back,2.17107968164794,,
1037,4F,84,Calming 3-back,2.0969041666666666,,
1038,4F,84,Vexing 1-back,3.1757356812933026,,
1039,4F,84,Vexing 3-back,3.043412277413308,,
1040,4F,85,Calming 1-back,2.1711455868971794,,
1041,4F,85,Calming 3-back,2.0846223837209297,,
1042,4F,85,Vexing 1-back,3.170680560747664,,
1043,4F,85,Vexing 3-back,3.0306101842871005,,
1044,4F,86,Calming 1-back,2.1712604694835678,,
1045,4F,86,Calming 3-back,2.084687137330754,,
1046,4F,86,Vexing 1-back,3.164046804511278,,
1047,4F,86,Vexing 3-back,3.030738008565311,,
1048,4F,87,Calming 1-back,2.17126718426501,,
1049,4F,87,Calming 3-back,2.0743954501452078,,
1050,4F,87,Vexing 1-back,3.1514593783494105,,
1051,4F,87,Vexing 3-back,3.018845692158761,,
1052,4F,88,Calming 1-back,2.171068219461697,,
1053,4F,88,Calming 3-back,2.0730252582159627,,
1054,4F,88,Vexing 1-back,3.1513932879377435,,
1055,4F,88,Vexing 3-back,3.022563452266153,,
1056,4F,89,Calming 1-back,1.9615223620522746,,
1057,4F,89,Calming 3-back,2.0486193610842203,,
1058,4F,89,Vexing 1-back,3.407212657004831,,
1059,4F,89,Vexing 3-back,3.201257276995305,,
1060,4F,90,Calming 1-back,1.9614247422680409,,
1061,4F,90,Calming 3-back,2.0486114119922627,,
1062,4F,90,Vexing 1-back,3.474087887887888,,
1063,4F,90,Vexing 3-back,3.218084456928839,,
1064,4F,91,Calming 1-back,1.9531024154589365,,
1065,4F,91,Calming 3-back,2.0486841392649904,,
1066,4F,91,Vexing 1-back,3.4942818011257035,,
1067,4F,91,Vexing 3-back,3.2973834424695982,,
1068,4F,92,Calming 1-back,1.9498913183279736,,
1069,4F,92,Calming 3-back,2.0452992255566307,,
1070,4F,92,Vexing 1-back,3.49876295503212,,
1071,4F,92,Vexing 3-back,3.3324483,,
1072,4F,93,Calming 1-back,1.9497714147286818,,
1073,4F,93,Calming 3-back,2.036151304347826,,
1074,4F,93,Vexing 1-back,3.5848127,,
1075,4F,93,Vexing 3-back,3.328448498635123,,
1076,4F,94,Calming 1-back,1.9500340936374545,,
1077,4F,94,Calming 3-back,2.0360757986447235,,
1078,4F,94,Vexing 1-back,3.606601137538779,,
1079,4F,94,Vexing 3-back,3.3115249766136574,,
1080,4F,95,Calming 1-back,1.9424769230769223,,
1081,4F,95,Calming 3-back,2.025804356243949,,
1082,4F,95,Vexing 1-back,3.5943582169709987,,
1083,4F,95,Vexing 3-back,3.286792272727273,,
1084,4F,96,Calming 1-back,1.9373356270810205,,
1085,4F,96,Calming 3-back,2.024334526112185,,
1086,4F,96,Vexing 1-back,3.5573919781221512,,
1087,4F,96,Vexing 3-back,3.273295403377111,,
1088,4F,97,Calming 1-back,1.9370783261802569,,
1089,4F,97,Calming 3-back,2.0241273694390713,,
1090,4F,97,Vexing 1-back,3.5114942157953286,,
1091,4F,97,Vexing 3-back,3.249342181818182,,
1092,4F,98,Calming 1-back,1.9371275362318834,,
1093,4F,98,Calming 3-back,2.0242198687910022,,
1094,4F,98,Vexing 1-back,3.4699171464330414,,
1095,4F,98,Vexing 3-back,3.2371767354596623,,
1096,4F,99,Calming 1-back,1.9373182413470529,,
1097,4F,99,Calming 3-back,2.0229468538238136,,
1098,4F,99,Vexing 1-back,3.4345201122544435,,
1099,4F,99,Vexing 3-back,3.224566228893058,,
1100,4F,100,Calming 1-back,1.9317584427767347,,
1101,4F,100,Calming 3-back,2.0115229951690816,,
1102,4F,100,Vexing 1-back,3.410086504217432,,
1103,4F,100,Vexing 3-back,3.2127170571696344,,
1104,4F,101,Calming 1-back,1.9251602514506765,,
1105,4F,101,Calming 3-back,2.0115693126815093,,
1106,4F,101,Vexing 1-back,3.3853405105438403,,
1107,4F,101,Vexing 3-back,3.20001880261927,,
1108,4F,102,Calming 1-back,1.9249722277722272,,
1109,4F,102,Calming 3-back,2.011605609284332,,
1110,4F,102,Vexing 1-back,3.3639334405144696,,
1111,4F,102,Vexing 3-back,3.190746204311153,,
1112,4F,103,Calming 1-back,1.9249600749765696,,
1113,4F,103,Calming 3-back,2.0114885660731017,,
1114,4F,103,Vexing 1-back,3.3365989208633096,,
1115,4F,103,Vexing 3-back,3.1882069614299158,,
1116,4F,104,Calming 1-back,1.9249456419868787,,
1117,4F,104,Calming 3-back,2.01040084348641,,
1118,4F,104,Vexing 1-back,3.3118308341143394,,
1119,4F,104,Vexing 3-back,3.175416963448922,,
1120,4F,105,Calming 1-back,1.9248361423220968,,
1121,4F,105,Calming 3-back,2.0000779342723,,
1122,4F,105,Vexing 1-back,3.2990275958840036,,
1123,4F,105,Vexing 3-back,3.1643013661202186,,
1124,4F,106,Calming 1-back,1.9214827553889404,,
1125,4F,106,Calming 3-back,1.9993817669172929,,
1126,4F,106,Vexing 1-back,3.275281768459435,,
1127,4F,106,Vexing 3-back,3.1639440900562854,,
1128,4F,107,Calming 1-back,1.9118441424554824,,
1129,4F,107,Calming 3-back,1.9993009363295877,,
1130,4F,107,Vexing 1-back,3.262021929026387,,
1131,4F,107,Vexing 3-back,3.1512770208900998,,
1132,4F,108,Calming 1-back,1.9117879007238876,,
1133,4F,108,Calming 3-back,1.9992328330206377,,
1134,4F,108,Vexing 1-back,3.2492449709864615,,
1135,4F,108,Vexing 3-back,3.151304813805631,,
1136,4F,109,Calming 1-back,1.9118201923076916,,
1137,4F,109,Calming 3-back,1.9872561502347412,,
1138,4F,109,Vexing 1-back,3.2370020408163267,,
1139,4F,109,Vexing 3-back,3.1474435454545455,,
1140,4F,110,Calming 1-back,1.9116842401500933,,
1141,4F,110,Calming 3-back,1.9865999031007748,,
1142,4F,110,Vexing 1-back,3.2247084623323015,,
1143,4F,110,Vexing 3-back,3.1396974719101123,,
1144,4F,111,Calming 1-back,1.9000215454545453,,
1145,4F,111,Calming 3-back,1.851348874296435,,
1146,4F,111,Vexing 1-back,3.2493220657276995,,
1147,4F,111,Vexing 3-back,3.136010975609756,,
1148,4F,112,Calming 1-back,1.8997907129455904,,
1149,4F,112,Calming 3-back,1.8513410112359547,,
1150,4F,112,Vexing 1-back,3.243715392061956,,
1151,4F,112,Vexing 3-back,3.201310620300752,,
1152,4F,113,Calming 1-back,1.8998984541062796,,
1153,4F,113,Calming 3-back,1.8513837863167757,,
1154,4F,113,Vexing 1-back,3.237473170731707,,
1155,4F,113,Vexing 3-back,3.2248785063752274,,
1156,4F,114,Calming 1-back,1.8998554999999995,,
1157,4F,114,Calming 3-back,1.851292033739456,,
1158,4F,114,Vexing 1-back,3.2247182596291015,,
1159,4F,114,Vexing 3-back,3.3178297474275027,,
1160,4F,115,Calming 1-back,1.899850842696629,,
1161,4F,115,Calming 3-back,1.8389543078412387,,
1162,4F,115,Vexing 1-back,3.2096095714285715,,
1163,4F,115,Vexing 3-back,3.4233537523452156,,
1164,4F,116,Calming 1-back,1.9000612612612608,,
1165,4F,116,Calming 3-back,1.8388251407129454,,
1166,4F,116,Vexing 1-back,3.200058270676692,,
1167,4F,116,Vexing 3-back,3.4463587040618955,,
1168,4F,117,Calming 1-back,1.8998712406015035,,
1169,4F,117,Calming 3-back,1.8389127699530514,,
1170,4F,117,Vexing 1-back,3.188360602258469,,
1171,4F,117,Vexing 3-back,3.434528838951311,,
1172,4F,118,Calming 1-back,1.8999865168539323,,
1173,4F,118,Calming 3-back,1.8388705996131525,,
1174,4F,118,Vexing 1-back,3.1884235011990407,,
1175,4F,118,Vexing 3-back,3.4109253521126766,,
1176,4F,119,Calming 1-back,1.887638685446009,,
1177,4F,119,Calming 3-back,1.8389354868913854,,
1178,4F,119,Vexing 1-back,3.200268848167539,,
1179,4F,119,Vexing 3-back,3.3830130841121497,,
1180,4F,120,Calming 1-back,1.8879499545867389,,
1181,4F,120,Calming 3-back,1.8389310150375937,,
1182,4F,120,Vexing 1-back,3.2002389240506326,,
1183,4F,120,Vexing 3-back,3.3394057062675397,,
1184,4F,121,Calming 1-back,1.8876648255813948,,
1185,4F,121,Calming 3-back,1.839034427767354,,
1186,4F,121,Vexing 1-back,3.1885047434656344,,
1187,4F,121,Vexing 3-back,3.3186008426966294,,
1188,4F,122,Calming 1-back,1.8876877225866913,,
1189,4F,122,Calming 3-back,1.836391079812206,,
1190,4F,122,Vexing 1-back,3.1882182999999995,,
1191,4F,122,Vexing 3-back,3.299028048780488,,
1192,4F,123,Calming 1-back,1.8877557971014487,,
1193,4F,123,Calming 3-back,1.8273144545454543,,
1194,4F,123,Vexing 1-back,3.175696997690531,,
1195,4F,123,Vexing 3-back,3.2813196060037533,,
1196,4F,124,Calming 1-back,1.8877125695216905,,
1197,4F,124,Calming 3-back,1.8273330287206264,,
1198,4F,124,Vexing 1-back,3.1638857777777774,,
1199,4F,124,Vexing 3-back,3.2660938044530505,,
1200,4F,125,Calming 1-back,1.8760263849765255,,
1201,4F,125,Calming 3-back,1.82890243902439,,
1202,4F,125,Vexing 1-back,3.1560501452081313,,
1203,4F,125,Vexing 3-back,3.251220329138432,,
1204,4F,126,Calming 1-back,1.876084652278177,,
1205,4F,126,Calming 3-back,1.8271100281162134,,
1206,4F,126,Vexing 1-back,3.151293451568894,,
1207,4F,126,Vexing 3-back,3.246091002811622,,
1208,4F,127,Calming 1-back,1.8760344892221175,,
1209,4F,127,Calming 3-back,1.8270368421052627,,
1210,4F,127,Vexing 1-back,3.139992642487046,,
1211,4F,127,Vexing 3-back,3.237284727272727,,
1212,4F,128,Calming 1-back,1.8761444177671065,,
1213,4F,128,Calming 3-back,1.8389293345829425,,
1214,4F,128,Vexing 1-back,3.1345943714821765,,
1215,4F,128,Vexing 3-back,3.224958818011257,,
1216,4F,129,Calming 1-back,1.8672807357211998,,
1217,4F,129,Calming 3-back,1.8533559891107076,,
1218,4F,129,Vexing 1-back,3.1278572533849127,,
1219,4F,129,Vexing 3-back,3.2130078725398312,,
1220,4F,130,Calming 1-back,1.8727577861163225,,
1221,4F,130,Calming 3-back,1.8634539831302714,,
1222,4F,130,Vexing 1-back,3.127869990319458,,
1223,4F,130,Vexing 3-back,3.2044896810506565,,
1224,4F,131,Calming 1-back,1.876093691830403,,
1225,4F,131,Calming 3-back,1.8634768579492,,
1226,4F,131,Vexing 1-back,3.116166729323308,,
1227,4F,131,Vexing 3-back,3.200007029053421,,
1228,4F,132,Calming 1-back,1.8760738878143128,,
1229,4F,132,Calming 3-back,1.86327778819119,,
1230,4F,132,Vexing 1-back,3.116234593023256,,
1231,4F,132,Vexing 3-back,3.188481971830986,,
1232,4F,133,Calming 1-back,2.069850436469447,,
1233,4F,133,Calming 3-back,1.9370287512100672,,
1234,4F,133,Vexing 1-back,2.981304185623294,,
1235,4F,133,Vexing 3-back,3.1162629455909947,,
1236,4F,134,Calming 1-back,2.0602432301740805,,
1237,4F,134,Calming 3-back,1.9588583736689251,,
1238,4F,134,Vexing 1-back,2.9811748828491096,,
1239,4F,134,Vexing 3-back,3.1037720187793427,,
1240,4F,135,Calming 1-back,2.060302229654403,,
1241,4F,135,Calming 3-back,2.006587137330754,,
1242,4F,135,Vexing 1-back,3.043427792915532,,
1243,4F,135,Vexing 3-back,3.103332104752667,,
1244,4F,136,Calming 1-back,2.0603656340755077,,
1245,4F,136,Calming 3-back,2.0970668737060034,,
1246,4F,136,Vexing 1-back,3.079035031847134,,
1247,4F,136,Vexing 3-back,3.0919169409486935,,
1248,4F,137,Calming 1-back,2.0535812379110245,,
1249,4F,137,Calming 3-back,2.1711497579864467,,
1250,4F,137,Vexing 1-back,3.091828240740741,,
1251,4F,137,Vexing 3-back,3.088744778927564,,
1252,4F,138,Calming 1-back,2.048321781219748,,
1253,4F,138,Calming 3-back,2.1958148255813947,,
1254,4F,138,Vexing 1-back,3.0788990683229813,,
1255,4F,138,Vexing 3-back,3.0791027179006565,,
1256,4F,139,Calming 1-back,2.0484032850241545,,
1257,4F,139,Calming 3-back,2.195928557599225,,
1258,4F,139,Vexing 1-back,3.0672031212484994,,
1259,4F,139,Vexing 3-back,3.0710501879699246,,
1260,4F,140,Calming 1-back,2.0442652131782943,,
1261,4F,140,Calming 3-back,2.1830626331074536,,
1262,4F,140,Vexing 1-back,3.055005305305306,,
1263,4F,140,Vexing 3-back,3.0669696705426364,,
1264,4F,141,Calming 1-back,2.048452947052947,,
1265,4F,141,Calming 3-back,2.172105130687318,,
1266,4F,141,Vexing 1-back,3.0306395209580845,,
1267,4F,141,Vexing 3-back,3.067115972894482,,
1268,4F,142,Calming 1-back,2.0485010817307687,,
1269,4F,142,Calming 3-back,2.167332146204311,,
1270,4F,142,Vexing 1-back,3.0216440047961632,,
1271,4F,142,Vexing 3-back,3.0672353339787026,,
1272,4F,143,Calming 1-back,2.0485604145077714,,
1273,4F,143,Calming 3-back,2.146539088263821,,
1274,4F,143,Vexing 1-back,3.0189914000000004,,
1275,4F,143,Vexing 3-back,3.0551257249766137,,
1276,4F,144,Calming 1-back,2.0485130560928426,,
1277,4F,144,Calming 3-back,2.1466535852713173,,
1278,4F,144,Vexing 1-back,3.0105355454545455,,
1279,4F,144,Vexing 3-back,3.0549545040946313,,
1280,4F,145,Calming 1-back,2.0486215434083594,,
1281,4F,145,Calming 3-back,2.130946027131783,,
1282,4F,145,Vexing 1-back,3.006342220200182,,
1283,4F,145,Vexing 3-back,3.043361361626879,,
1284,4F,146,Calming 1-back,2.0487080524344563,,
1285,4F,146,Calming 3-back,2.1140241045498542,,
1286,4F,146,Vexing 1-back,3.0011114545454545,,
1287,4F,146,Vexing 3-back,3.0318092811646955,,
1288,4F,147,Calming 1-back,2.04866676056338,,
1289,4F,147,Calming 3-back,2.1098372340425526,,
1290,4F,147,Vexing 1-back,2.994570160427807,,
1291,4F,147,Vexing 3-back,3.03066372462489,,
1292,4F,148,Calming 1-back,2.0486828571428566,,
1293,4F,148,Calming 3-back,2.09753652173913,,
1294,4F,148,Vexing 1-back,2.98364476534296,,
1295,4F,148,Vexing 3-back,3.0306207272727277,,
1296,4F,149,Calming 1-back,2.0486817987152026,,
1297,4F,149,Calming 3-back,2.097674346563407,,
1298,4F,149,Vexing 1-back,2.9812083568075116,,
1299,4F,149,Vexing 3-back,3.0258858567543063,,
1300,4F,150,Calming 1-back,2.048623984526112,,
1301,4F,150,Calming 3-back,2.0977377541142297,,
1302,4F,150,Vexing 1-back,2.9811915934755335,,
1303,4F,150,Vexing 3-back,3.018910503089144,,
1304,4F,151,Calming 1-back,2.0485598257502415,,
1305,4F,151,Calming 3-back,2.0848145893719803,,
1306,4F,151,Vexing 1-back,2.9693475314617617,,
1307,4F,151,Vexing 3-back,3.0189252727272726,,
1308,4F,152,Calming 1-back,2.0485663663663654,,
1309,4F,152,Calming 3-back,2.084773984526112,,
1310,4F,152,Vexing 1-back,2.9693101725703905,,
1311,4F,152,Vexing 3-back,3.0189190735694824,,
1312,4F,153,Calming 1-back,2.0484599999999995,,
1313,4F,153,Calming 3-back,2.08340619554695,,
1314,4F,153,Vexing 1-back,2.969449766136576,,
1315,4F,153,Vexing 3-back,3.006947454545455,,
1316,4F,154,Calming 1-back,2.0394250726040655,,
1317,4F,154,Calming 3-back,2.0728830754352026,,
1318,4F,154,Vexing 1-back,2.956839362699156,,
1319,4F,154,Vexing 3-back,3.0063823636363636,,
1320,4F,155,Calming 1-back,2.1096692158760884,,
1321,4F,155,Calming 3-back,2.10964917715392,,
1322,4F,155,Vexing 1-back,3.198357397003745,,
1323,4F,155,Vexing 3-back,3.1512172735760973,,
1324,4F,156,Calming 1-back,2.1098561471442396,,
1325,4F,156,Calming 3-back,2.1298808325266214,,
1326,4F,156,Vexing 1-back,3.2910347378277156,,
1327,4F,156,Vexing 3-back,3.139771121495327,,
1328,4F,157,Calming 1-back,2.097827562862669,,
1329,4F,157,Calming 3-back,2.1340872216844144,,
1330,4F,157,Vexing 1-back,3.3114822263797943,,
1331,4F,157,Vexing 3-back,3.1594997191011234,,
1332,4F,158,Calming 1-back,2.0976118955512573,,
1333,4F,158,Calming 3-back,2.1258701839302994,,
1334,4F,158,Vexing 1-back,3.3066248875562225,,
1335,4F,158,Vexing 3-back,3.274447462406016,,
1336,4F,159,Calming 1-back,2.097719864341085,,
1337,4F,159,Calming 3-back,2.109710745401742,,
1338,4F,159,Vexing 1-back,3.2811057736720564,,
1339,4F,159,Vexing 3-back,3.3542299906279283,,
1340,4F,160,Calming 1-back,2.0977656340755084,,
1341,4F,160,Calming 3-back,2.109816731141199,,
1342,4F,160,Vexing 1-back,3.249274348958334,,
1343,4F,160,Vexing 3-back,3.372618632958801,,
1344,4F,161,Calming 1-back,2.0847867205542725,,
1345,4F,161,Calming 3-back,2.0976910112359546,,
1346,4F,161,Vexing 1-back,3.224834434434435,,
1347,4F,161,Vexing 3-back,3.355472394366197,,
1348,4F,162,Calming 1-back,2.0848606001936103,,
1349,4F,162,Calming 3-back,2.0984436018957346,,
1350,4F,162,Vexing 1-back,3.2001499445061046,,
1351,4F,162,Vexing 3-back,3.3233522935779822,,
1352,4F,163,Calming 1-back,2.073747052740434,,
1353,4F,163,Calming 3-back,2.0976394966118095,,
1354,4F,163,Vexing 1-back,3.18825156462585,,
1355,4F,163,Vexing 3-back,3.2867511278195494,,
1356,4F,164,Calming 1-back,2.072792604501607,,
1357,4F,164,Calming 3-back,2.0979227492739585,,
1358,4F,164,Vexing 1-back,3.174032398452611,,
1359,4F,164,Vexing 3-back,3.2530972727272727,,
1360,4F,165,Calming 1-back,2.0729006776379473,,
1361,4F,165,Calming 3-back,2.089147001934236,,
1362,4F,165,Vexing 1-back,3.1611789617486337,,
1363,4F,165,Vexing 3-back,3.224671026339691,,
1364,4F,166,Calming 1-back,2.0730214700193423,,
1365,4F,166,Calming 3-back,2.0848614119922626,,
1366,4F,166,Vexing 1-back,3.1513069627851142,,
1367,4F,166,Vexing 3-back,3.2045576609247504,,
1368,4F,167,Calming 1-back,2.0728278799612774,,
1369,4F,167,Calming 3-back,2.0848204259438528,,
1370,4F,167,Vexing 1-back,3.139695131086142,,
1371,4F,167,Vexing 3-back,3.1883616322701687,,
1372,4F,168,Calming 1-back,2.0729575024201354,,
1373,4F,168,Calming 3-back,2.0848154244306416,,
1374,4F,168,Vexing 1-back,3.1278825593395254,,
1375,4F,168,Vexing 3-back,3.175752715355805,,
1376,4F,169,Calming 1-back,2.0665511387163558,,
1377,4F,169,Calming 3-back,2.0788782945736433,,
1378,4F,169,Vexing 1-back,3.1277773921200747,,
1379,4F,169,Vexing 3-back,3.1579683816651074,,
1380,4F,170,Calming 1-back,2.0601970999999994,,
1381,4F,170,Calming 3-back,2.073042248062015,,
1382,4F,170,Vexing 1-back,3.1162221388367732,,
1383,4F,170,Vexing 3-back,3.147431958762887,,
1384,4F,171,Calming 1-back,2.07264175,,
1385,4F,171,Calming 3-back,2.0730455953533395,,
1386,4F,171,Vexing 1-back,3.113294845360825,,
1387,4F,171,Vexing 3-back,3.1343622889305816,,
1388,4F,172,Calming 1-back,2.072910075026795,,
1389,4F,172,Calming 3-back,2.0730843175217806,,
1390,4F,172,Vexing 1-back,3.1035819887429645,,
1391,4F,172,Vexing 3-back,3.1279630985915494,,
1392,4F,173,Calming 1-back,2.0728407777777775,,
1393,4F,173,Calming 3-back,2.0729709864603474,,
1394,4F,173,Vexing 1-back,3.1024780765253364,,
1395,4F,173,Vexing 3-back,3.1162531802120146,,
1396,4F,174,Calming 1-back,2.0728790167865703,,
1397,4F,174,Calming 3-back,2.0690266214908033,,
1398,4F,174,Vexing 1-back,3.091621649484536,,
1399,4F,174,Vexing 3-back,3.10355025,,
1400,4F,175,Calming 1-back,2.060215375,,
1401,4F,175,Calming 3-back,2.060628265524625,,
1402,4F,175,Vexing 1-back,3.091884362934363,,
1403,4F,175,Vexing 3-back,3.091826902173913,,
1404,4F,176,Calming 1-back,2.0601250258531536,,
1405,4F,176,Calming 3-back,2.060471953578336,,
1406,4F,176,Vexing 1-back,3.0889361682242993,,
1407,4F,176,Vexing 3-back,3.089480674567001,,
1408,6M,1,Calming 1-back,1.3011225866916591,0.8181818181818182,296.09090909090907
1409,6M,1,Calming 3-back,1.2406608654750708,,
1410,6M,1,Vexing 1-back,0.7974758858858859,0.8636363636363636,273.90909090909093
1411,6M,1,Vexing 3-back,0.82187576,,
1412,6M,2,Calming 1-back,1.3012144628099174,,
1413,6M,2,Calming 3-back,1.2406139774859288,0.5909090909090909,219.1818181818182
1414,6M,2,Vexing 1-back,0.7972620411985019,,
1415,6M,2,Vexing 3-back,0.8220494560290118,0.7272727272727273,202.5909090909091
1416,6M,3,Calming 1-back,1.3062072664359865,,
1417,6M,3,Calming 3-back,1.2435604127579738,0.5909090909090909,193.22727272727272
1418,6M,3,Vexing 1-back,0.80385246,0.8181818181818182,260.59090909090907
1419,6M,3,Vexing 3-back,0.8220223705722072,,
1420,6M,4,Calming 1-back,1.3259455953533401,0.8181818181818182,273.54545454545456
1421,6M,4,Calming 3-back,1.2407711356466877,,
1422,6M,4,Vexing 1-back,0.7973785149863759,,
1423,6M,4,Vexing 3-back,0.8213121477428179,0.5909090909090909,206.63636363636363
1424,6M,5,Calming 1-back,1.320647156153051,,
1425,6M,5,Calming 3-back,1.2407291000000005,0.6818181818181818,292.09090909090907
1426,6M,5,Vexing 1-back,0.809480942857143,0.9090909090909091,292.45454545454544
1427,6M,5,Vexing 3-back,0.8133034444444444,,
1428,6M,6,Calming 1-back,1.3138821007502681,0.8636363636363636,265.59090909090907
1429,6M,6,Calming 3-back,1.2407095000000004,,
1430,6M,6,Vexing 1-back,0.8093524786324786,,
1431,6M,6,Vexing 3-back,0.8139187335834898,0.6818181818181818,298.90909090909093
1432,6M,7,Calming 1-back,1.3009534365924496,0.8636363636363636,271.8181818181818
1433,6M,7,Calming 3-back,1.2406205714285716,,
1434,6M,7,Vexing 1-back,0.8092588650963598,0.8181818181818182,261.6363636363636
1435,6M,7,Vexing 3-back,0.8195906009389671,,
1436,6M,8,Calming 1-back,1.300887212787213,,
1437,6M,8,Calming 3-back,1.2332106741573032,0.6363636363636364,196.45454545454547
1438,6M,8,Vexing 1-back,0.8216863272120201,,
1439,6M,8,Vexing 3-back,0.822003190751445,0.6818181818181818,268.3636363636364
1440,6M,9,Calming 1-back,1.3009521344232517,,
1441,6M,9,Calming 3-back,1.2278271147161066,,
1442,6M,9,Vexing 1-back,0.8217258672376871,,
1443,6M,9,Vexing 3-back,0.822050735694823,,
1444,6M,10,Calming 1-back,1.3008895970009375,,
1445,6M,10,Calming 3-back,1.2278145208131657,0.5,249.36363636363637
1446,6M,10,Vexing 1-back,0.8217289348370926,0.8181818181818182,251.95454545454547
1447,6M,10,Vexing 3-back,0.818905272556391,,
1448,6M,11,Calming 1-back,1.2961253922967193,0.6363636363636364,273.77272727272725
1449,6M,11,Calming 3-back,1.227821237458194,,
1450,6M,11,Vexing 1-back,0.8111140388007054,,
1451,6M,11,Vexing 3-back,0.8220534203655352,0.7727272727272727,247.0
1452,6M,12,Calming 1-back,1.2892577369439073,0.7727272727272727,257.95454545454544
1453,6M,12,Calming 3-back,1.2276335526315791,,
1454,6M,12,Vexing 1-back,0.8219261973525871,,
1455,6M,12,Vexing 3-back,0.8221832521489971,0.7272727272727273,224.13636363636363
1456,6M,13,Calming 1-back,1.289290762620838,,
1457,6M,13,Calming 3-back,1.2276841942148764,0.6363636363636364,169.9090909090909
1458,6M,13,Vexing 1-back,0.821908163265306,0.8636363636363636,286.1363636363636
1459,6M,13,Vexing 3-back,0.8342066228893057,,
1460,6M,14,Calming 1-back,1.2894084745762715,,
1461,6M,14,Calming 3-back,1.2155636704119852,0.5454545454545454,161.95454545454547
1462,6M,14,Vexing 1-back,0.8217938372093022,,
1463,6M,14,Vexing 3-back,0.834100507996237,0.8181818181818182,286.3181818181818
1464,6M,15,Calming 1-back,1.27655847639485,0.8181818181818182,310.6818181818182
1465,6M,15,Calming 3-back,1.215627176015474,,
1466,6M,15,Vexing 1-back,0.8093085,0.9545454545454546,248.3181818181818
1467,6M,15,Vexing 3-back,0.8341112715712988,,
1468,6M,16,Calming 1-back,1.2764025,,
1469,6M,16,Calming 3-back,1.2157073033707866,0.7727272727272727,239.0909090909091
1470,6M,16,Vexing 1-back,0.8094607850467289,,
1471,6M,16,Vexing 3-back,0.8283091257485029,0.0,237.22727272727272
1472,6M,17,Calming 1-back,1.2765277720207258,0.8636363636363636,249.4090909090909
1473,6M,17,Calming 3-back,1.2155988732394365,,
1474,6M,17,Vexing 1-back,0.8093966857962698,0.8636363636363636,210.6818181818182
1475,6M,17,Vexing 3-back,0.8340853421368549,,
1476,6M,18,Calming 1-back,1.2676251552795033,,
1477,6M,18,Calming 3-back,1.20265,,
1478,6M,18,Vexing 1-back,0.8095912361331221,,
1479,6M,18,Vexing 3-back,0.834174597207304,,
1480,6M,19,Calming 1-back,1.2649142297650133,,
1481,6M,19,Calming 3-back,1.2026659000000004,,
1482,6M,19,Vexing 1-back,0.8093498578199053,,
1483,6M,19,Vexing 3-back,0.8341110432330827,,
1484,6M,20,Calming 1-back,1.265153357314149,,
1485,6M,20,Calming 3-back,1.1953351428571433,,
1486,6M,20,Vexing 1-back,0.8091870314842579,,
1487,6M,20,Vexing 3-back,0.8250762078651686,,
1488,6M,21,Calming 1-back,1.2650885117493476,,
1489,6M,21,Calming 3-back,1.1906322822822826,,
1490,6M,21,Vexing 1-back,0.809205623501199,,
1491,6M,21,Vexing 3-back,0.8226290557939914,,
1492,6M,22,Calming 1-back,1.262669739478958,,
1493,6M,22,Calming 3-back,1.1907361000000005,,
1494,6M,22,Vexing 1-back,0.809579042857143,,
1495,6M,22,Vexing 3-back,0.8249154128440368,,
1496,6M,23,Calming 1-back,1.1158540262172287,,
1497,6M,23,Calming 3-back,1.1754203183520602,,
1498,6M,23,Vexing 1-back,0.8219997181818182,,
1499,6M,23,Vexing 3-back,1.0914184284377924,,
1500,6M,24,Calming 1-back,1.1159271041369472,,
1501,6M,24,Calming 3-back,1.1659283894449501,,
1502,6M,24,Vexing 1-back,0.821866041856233,,
1503,6M,24,Vexing 3-back,1.0787677600749765,,
1504,6M,25,Calming 1-back,1.1159906793048973,,
1505,6M,25,Calming 3-back,1.1659716431924885,,
1506,6M,25,Vexing 1-back,0.8217579924953095,,
1507,6M,25,Vexing 3-back,1.06760618556701,,
1508,6M,26,Calming 1-back,1.1157709006928405,,
1509,6M,26,Calming 3-back,1.1658795854922281,,
1510,6M,26,Vexing 1-back,0.8220670863309352,,
1511,6M,26,Vexing 3-back,1.0670954285714283,,
1512,6M,27,Calming 1-back,1.1158925053533189,,
1513,6M,27,Calming 3-back,1.1658872842870116,,
1514,6M,27,Vexing 1-back,0.8218521932114882,,
1515,6M,27,Vexing 3-back,1.0548363408521302,,
1516,6M,28,Calming 1-back,1.1062403669724767,,
1517,6M,28,Calming 3-back,1.1658514103730664,,
1518,6M,28,Vexing 1-back,0.8219929276895944,,
1519,6M,28,Vexing 3-back,1.0547399749373432,,
1520,6M,29,Calming 1-back,1.1033791183294661,,
1521,6M,29,Calming 3-back,1.1659774545454544,,
1522,6M,29,Vexing 1-back,0.8219384140233723,,
1523,6M,29,Vexing 3-back,1.0546051051051049,,
1524,6M,30,Calming 1-back,1.103727283653846,,
1525,6M,30,Calming 3-back,1.1660820056232428,,
1526,6M,30,Vexing 1-back,0.8219849088541666,,
1527,6M,30,Vexing 3-back,1.0429144124168512,,
1528,6M,31,Calming 1-back,1.1037309417040357,,
1529,6M,31,Calming 3-back,1.1658930127041742,,
1530,6M,31,Vexing 1-back,0.82174148409894,,
1531,6M,31,Vexing 3-back,1.042966602129719,,
1532,6M,32,Calming 1-back,1.1036353868194841,,
1533,6M,32,Calming 3-back,1.1660974789915968,,
1534,6M,32,Vexing 1-back,0.8217044095665171,,
1535,6M,32,Vexing 3-back,1.0429548689138575,,
1536,6M,33,Calming 1-back,1.1034379759519035,,
1537,6M,33,Calming 3-back,1.1660000968054214,,
1538,6M,33,Vexing 1-back,0.8217967372134038,,
1539,6M,33,Vexing 3-back,1.0428440616500454,,
1540,6M,34,Calming 1-back,1.1035990601503756,,
1541,6M,34,Calming 3-back,1.1549344545454547,,
1542,6M,34,Vexing 1-back,0.8217638380809595,,
1543,6M,34,Vexing 3-back,1.0431310506566602,,
1544,6M,35,Calming 1-back,1.1021067226890755,,
1545,6M,35,Calming 3-back,1.1533286937901501,,
1546,6M,35,Vexing 1-back,0.8218941798107255,,
1547,6M,35,Vexing 3-back,1.0302006566604125,,
1548,6M,36,Calming 1-back,1.0917164520743918,,
1549,6M,36,Calming 3-back,1.1534524835988753,,
1550,6M,36,Vexing 1-back,0.8219962762762761,,
1551,6M,36,Vexing 3-back,1.0300327408793264,,
1552,6M,37,Calming 1-back,1.091609958506224,,
1553,6M,37,Calming 3-back,1.1534019681349579,,
1554,6M,37,Vexing 1-back,0.8220993071161047,,
1555,6M,37,Vexing 3-back,1.0292353327085284,,
1556,6M,38,Calming 1-back,1.0916199999999998,,
1557,6M,38,Calming 3-back,1.1533513193812557,,
1558,6M,38,Vexing 1-back,0.8218245765027321,,
1559,6M,38,Vexing 3-back,1.0187339999999998,,
1560,6M,39,Calming 1-back,1.0915715307582259,,
1561,6M,39,Calming 3-back,1.142601373283396,,
1562,6M,39,Vexing 1-back,0.821930482398957,,
1563,6M,39,Vexing 3-back,1.0180379477250723,,
1564,6M,40,Calming 1-back,1.091667411545624,,
1565,6M,40,Calming 3-back,1.141238797814208,,
1566,6M,40,Vexing 1-back,0.8216604282655245,,
1567,6M,40,Vexing 3-back,1.0181755364806866,,
1568,6M,41,Calming 1-back,1.0916213541666664,,
1569,6M,41,Calming 3-back,1.1412497175141243,,
1570,6M,41,Vexing 1-back,0.8219711111111111,,
1571,6M,41,Vexing 3-back,1.018047266313933,,
1572,6M,42,Calming 1-back,1.0916867724867725,,
1573,6M,42,Calming 3-back,1.1412404145077721,,
1574,6M,42,Vexing 1-back,0.8218025648021829,,
1575,6M,42,Vexing 3-back,1.0182401498929334,,
1576,6M,43,Calming 1-back,1.0793048710601716,,
1577,6M,43,Calming 3-back,1.1412207207207208,,
1578,6M,43,Vexing 1-back,0.821808989169675,,
1579,6M,43,Vexing 3-back,1.00769912875121,,
1580,6M,44,Calming 1-back,1.0789875852660298,,
1581,6M,44,Calming 3-back,1.1412796250000001,,
1582,6M,44,Vexing 1-back,0.8219606842105264,,
1583,6M,44,Vexing 3-back,1.0053395625,,
1584,6M,45,Calming 1-back,1.0432243902439022,,
1585,6M,45,Calming 3-back,1.0723822846079378,,
1586,6M,45,Vexing 1-back,0.9936415347490348,,
1587,6M,45,Vexing 3-back,0.9561966925315228,,
1588,6M,46,Calming 1-back,1.0431164051355204,,
1589,6M,46,Calming 3-back,1.0916895450145208,,
1590,6M,46,Vexing 1-back,0.9935998142857144,,
1591,6M,46,Vexing 3-back,0.9523912212212213,,
1592,6M,47,Calming 1-back,1.0430527431421444,,
1593,6M,47,Calming 3-back,1.091688770571152,,
1594,6M,47,Vexing 1-back,0.993845156445557,,
1595,6M,47,Vexing 3-back,0.9442476600000003,,
1596,6M,48,Calming 1-back,1.0430019354838707,,
1597,6M,48,Calming 3-back,1.091602288984263,,
1598,6M,48,Vexing 1-back,0.9938148888888888,,
1599,6M,48,Vexing 3-back,0.9439852400000002,,
1600,6M,49,Calming 1-back,1.0391970021413273,,
1601,6M,49,Calming 3-back,1.0916703094777562,,
1602,6M,49,Vexing 1-back,0.9937502402402403,,
1603,6M,49,Vexing 3-back,0.9439687347703842,,
1604,6M,50,Calming 1-back,1.0307274089935758,,
1605,6M,50,Calming 3-back,1.0810120261437908,,
1606,6M,50,Vexing 1-back,0.993696962190352,,
1607,6M,50,Vexing 3-back,0.943966632270169,,
1608,6M,51,Calming 1-back,1.0301717434869737,,
1609,6M,51,Calming 3-back,1.0791448181818182,,
1610,6M,51,Vexing 1-back,0.9879257030015797,,
1611,6M,51,Vexing 3-back,0.943956669793621,,
1612,6M,52,Calming 1-back,1.0300159618008184,,
1613,6M,52,Calming 3-back,1.0790156639004145,,
1614,6M,52,Vexing 1-back,0.9810701999999999,,
1615,6M,52,Vexing 3-back,0.9438568289637954,,
1616,6M,53,Calming 1-back,1.0303204,,
1617,6M,53,Calming 3-back,1.0789957575757576,,
1618,6M,53,Vexing 1-back,0.9810281555555556,,
1619,6M,53,Vexing 3-back,0.9440019130434784,,
1620,6M,54,Calming 1-back,1.030012367491166,,
1621,6M,54,Calming 3-back,1.075753860127157,,
1622,6M,54,Vexing 1-back,0.9810462875816993,,
1623,6M,54,Vexing 3-back,0.9440900900900903,,
1624,6M,55,Calming 1-back,1.0301391541609821,,
1625,6M,55,Calming 3-back,1.0673311158798282,,
1626,6M,55,Vexing 1-back,0.9810999869109948,,
1627,6M,55,Vexing 3-back,0.9436211654135339,,
1628,6M,56,Calming 1-back,1.0305053533190576,,
1629,6M,56,Calming 3-back,1.067243656343656,,
1630,6M,56,Vexing 1-back,0.9810054626865671,,
1631,6M,56,Vexing 3-back,0.9310614993481096,,
1632,6M,57,Calming 1-back,1.0301490265486726,,
1633,6M,57,Calming 3-back,1.0673317561419473,,
1634,6M,57,Vexing 1-back,0.9811642088607593,,
1635,6M,57,Vexing 3-back,0.9310394208893484,,
1636,6M,58,Calming 1-back,1.030398140200286,,
1637,6M,58,Calming 3-back,1.0671982718894006,,
1638,6M,58,Vexing 1-back,0.9811347412353921,,
1639,6M,58,Vexing 3-back,0.9312463330300272,,
1640,6M,59,Calming 1-back,1.029847375,,
1641,6M,59,Calming 3-back,1.0672792698826594,,
1642,6M,59,Vexing 1-back,0.9709814714285714,,
1643,6M,59,Vexing 3-back,0.9312051809720785,,
1644,6M,60,Calming 1-back,1.0208545845272206,,
1645,6M,60,Calming 3-back,1.067320469361147,,
1646,6M,60,Vexing 1-back,0.9689264023210831,,
1647,6M,60,Vexing 3-back,0.9311219812206573,,
1648,6M,61,Calming 1-back,1.0183755639097742,,
1649,6M,61,Calming 3-back,1.0672860277136256,,
1650,6M,61,Vexing 1-back,0.9689323207301174,,
1651,6M,61,Vexing 3-back,0.9309441744840525,,
1652,6M,62,Calming 1-back,1.0183665555555552,,
1653,6M,62,Calming 3-back,1.057827395934172,,
1654,6M,62,Vexing 1-back,0.9689154617834396,,
1655,6M,62,Vexing 3-back,0.9310929933481151,,
1656,6M,63,Calming 1-back,1.0185404,,
1657,6M,63,Calming 3-back,1.0549997999999998,,
1658,6M,63,Vexing 1-back,0.969063388030888,,
1659,6M,63,Vexing 3-back,0.9311884805653711,,
1660,6M,64,Calming 1-back,1.0182766666666665,,
1661,6M,64,Calming 3-back,1.0548476141078835,,
1662,6M,64,Vexing 1-back,0.9688614864864863,,
1663,6M,64,Vexing 3-back,0.9311085299806576,,
1664,6M,65,Calming 1-back,1.0184482499999998,,
1665,6M,65,Calming 3-back,1.05474372659176,,
1666,6M,65,Vexing 1-back,0.9650180410742495,,
1667,6M,65,Vexing 3-back,0.9205834240150094,,
1668,6M,66,Calming 1-back,1.0183173775671406,,
1669,6M,66,Calming 3-back,1.0549318650421742,,
1670,6M,66,Vexing 1-back,0.9570101769911504,,
1671,6M,66,Vexing 3-back,0.9188829080675422,,
1672,6M,67,Calming 1-back,1.0056075913776943,,
1673,6M,67,Calming 3-back,0.9814991868344627,,
1674,6M,67,Vexing 1-back,0.919156844143272,,
1675,6M,67,Vexing 3-back,1.3132591549295776,,
1676,6M,68,Calming 1-back,1.0055519258202565,,
1677,6M,68,Calming 3-back,0.9814801355275895,,
1678,6M,68,Vexing 1-back,0.9191302432045781,,
1679,6M,68,Vexing 3-back,1.313356533575318,,
1680,6M,69,Calming 1-back,1.0055564601769913,,
1681,6M,69,Calming 3-back,0.9736962101313319,,
1682,6M,69,Vexing 1-back,0.9188228328981723,,
1683,6M,69,Vexing 3-back,1.2889015917603,,
1684,6M,70,Calming 1-back,0.9982498911564626,,
1685,6M,70,Calming 3-back,0.969253707250342,,
1686,6M,70,Vexing 1-back,0.9189645028142589,,
1687,6M,70,Vexing 3-back,1.264367332382311,,
1688,6M,71,Calming 1-back,0.9955272499999999,,
1689,6M,71,Calming 3-back,0.9693658743169399,,
1690,6M,71,Vexing 1-back,0.919054903640257,,
1691,6M,71,Vexing 3-back,1.251837037037037,,
1692,6M,72,Calming 1-back,1.0031674113475175,,
1693,6M,72,Calming 3-back,0.9694430565371026,,
1694,6M,72,Vexing 1-back,0.9187469043151972,,
1695,6M,72,Vexing 3-back,1.2402830065359478,,
1696,6M,73,Calming 1-back,0.9942368609022555,,
1697,6M,73,Calming 3-back,0.9696188614298326,,
1698,6M,73,Vexing 1-back,0.919047110694184,,
1699,6M,73,Vexing 3-back,1.2273920676202863,,
1700,6M,74,Calming 1-back,0.9933728936170213,,
1701,6M,74,Calming 3-back,0.9692369461697721,,
1702,6M,74,Vexing 1-back,0.9188367167381974,,
1703,6M,74,Vexing 3-back,1.2160137349397593,,
1704,6M,75,Calming 1-back,0.993564861751152,,
1705,6M,75,Calming 3-back,0.9693001714898177,,
1706,6M,75,Vexing 1-back,0.9188509734513275,,
1707,6M,75,Vexing 3-back,1.203304041720991,,
1708,6M,76,Calming 1-back,0.9937071602624179,,
1709,6M,76,Calming 3-back,0.9691111545454545,,
1710,6M,76,Vexing 1-back,0.9188407222222224,,
1711,6M,76,Vexing 3-back,1.1901771634615388,,
1712,6M,77,Calming 1-back,0.993986068111455,,
1713,6M,77,Calming 3-back,0.9691324835988752,,
1714,6M,77,Vexing 1-back,0.9188071896316508,,
1715,6M,77,Vexing 3-back,1.1900846518987345,,
1716,6M,78,Calming 1-back,0.99363443196005,,
1717,6M,78,Calming 3-back,0.9690658093994777,,
1718,6M,78,Vexing 1-back,0.9187628976377953,,
1719,6M,78,Vexing 3-back,1.1773855620155043,,
1720,6M,79,Calming 1-back,0.9936499422632793,,
1721,6M,79,Calming 3-back,0.9642519167473378,,
1722,6M,79,Vexing 1-back,0.9175902884615385,,
1723,6M,79,Vexing 3-back,1.1773833494675707,,
1724,6M,80,Calming 1-back,0.9936974608904935,,
1725,6M,80,Calming 3-back,0.9691565667311411,,
1726,6M,80,Vexing 1-back,0.9067501688555347,,
1727,6M,80,Vexing 3-back,1.1695441,,
1728,6M,81,Calming 1-back,0.9937371082949309,,
1729,6M,81,Calming 3-back,0.9693350399999999,,
1730,6M,81,Vexing 1-back,0.9059899109131404,,
1731,6M,81,Vexing 3-back,1.1653037214885955,,
1732,6M,82,Calming 1-back,0.9936946273637376,,
1733,6M,82,Calming 3-back,0.9612301043024772,,
1734,6M,82,Vexing 1-back,0.9061846926536731,,
1735,6M,82,Vexing 3-back,1.161860193236715,,
1736,6M,83,Calming 1-back,0.9857717414965986,,
1737,6M,83,Calming 3-back,0.9573447240411599,,
1738,6M,83,Vexing 1-back,0.906174584717608,,
1739,6M,83,Vexing 3-back,1.1526259303721489,,
1740,6M,84,Calming 1-back,0.9911703561387067,,
1741,6M,84,Calming 3-back,0.9566692918454937,,
1742,6M,84,Vexing 1-back,0.9059675514018691,,
1743,6M,84,Vexing 3-back,1.1580492492492493,,
1744,6M,85,Calming 1-back,0.9938735197817189,,
1745,6M,85,Calming 3-back,0.9565771090909092,,
1746,6M,85,Vexing 1-back,0.9040674018475751,,
1747,6M,85,Vexing 3-back,1.1516115143929913,,
1748,6M,86,Calming 1-back,0.9821734333958724,,
1749,6M,86,Calming 3-back,0.9564726885880077,,
1750,6M,86,Vexing 1-back,0.9060292291220557,,
1751,6M,86,Vexing 3-back,1.1403752951861945,,
1752,6M,87,Calming 1-back,0.9817737279151943,,
1753,6M,87,Calming 3-back,0.9565909381044487,,
1754,6M,87,Vexing 1-back,0.9007323561643834,,
1755,6M,87,Vexing 3-back,1.1403345454545455,,
1756,6M,88,Calming 1-back,0.9813237658227847,,
1757,6M,88,Calming 3-back,0.9565934660194174,,
1758,6M,88,Vexing 1-back,0.906006284796574,,
1759,6M,88,Vexing 3-back,1.2797368530020705,,
1760,6M,89,Calming 1-back,0.9190540503875969,,
1761,6M,89,Calming 3-back,0.9442248408239701,,
1762,6M,89,Vexing 1-back,1.0912821930646672,,
1763,6M,89,Vexing 3-back,1.0427417231364955,,
1764,6M,90,Calming 1-back,0.9194436516853932,,
1765,6M,90,Calming 3-back,0.9443096324951645,,
1766,6M,90,Vexing 1-back,1.091106296851574,,
1767,6M,90,Vexing 3-back,1.066911332728921,,
1768,6M,91,Calming 1-back,0.9191508333333334,,
1769,6M,91,Calming 3-back,0.9442418275538894,,
1770,6M,91,Vexing 1-back,1.0912472595656668,,
1771,6M,91,Vexing 3-back,1.1198177132146203,,
1772,6M,92,Calming 1-back,0.9193727486910995,,
1773,6M,92,Calming 3-back,0.9444854069119287,,
1774,6M,92,Vexing 1-back,1.084338980509745,,
1775,6M,92,Vexing 3-back,1.1404775749674054,,
1776,6M,93,Calming 1-back,0.9192479307116105,,
1777,6M,93,Calming 3-back,0.9444479885877317,,
1778,6M,93,Vexing 1-back,1.0904789915966386,,
1779,6M,93,Vexing 3-back,1.14083007518797,,
1780,6M,94,Calming 1-back,0.919355594622544,,
1781,6M,94,Calming 3-back,0.9441462500000001,,
1782,6M,94,Vexing 1-back,1.0784396770472893,,
1783,6M,94,Vexing 3-back,1.1276550326797385,,
1784,6M,95,Calming 1-back,0.9192622685788789,,
1785,6M,95,Calming 3-back,0.9443695731153496,,
1786,6M,95,Vexing 1-back,1.0787345,,
1787,6M,95,Vexing 3-back,1.1156073770491801,,
1788,6M,96,Calming 1-back,0.9191239670223086,,
1789,6M,96,Calming 3-back,0.9413728734439833,,
1790,6M,96,Vexing 1-back,1.0785534709193245,,
1791,6M,96,Vexing 3-back,1.1155332898172323,,
1792,6M,97,Calming 1-back,0.9193026528692381,,
1793,6M,97,Calming 3-back,0.9351665323336457,,
1794,6M,97,Vexing 1-back,1.0785192660550458,,
1795,6M,97,Vexing 3-back,1.103152857142857,,
1796,6M,98,Calming 1-back,0.9193165150048404,,
1797,6M,98,Calming 3-back,0.9313402896995707,,
1798,6M,98,Vexing 1-back,1.0785935435435434,,
1799,6M,98,Vexing 3-back,1.103144778067885,,
1800,6M,99,Calming 1-back,0.9192102636363637,,
1801,6M,99,Calming 3-back,0.9315341529525654,,
1802,6M,99,Vexing 1-back,1.0666470930232557,,
1803,6M,99,Vexing 3-back,1.1032764015645369,,
1804,6M,100,Calming 1-back,0.91450174566474,,
1805,6M,100,Calming 3-back,0.9314846027131781,,
1806,6M,100,Vexing 1-back,1.0667937329700272,,
1807,6M,100,Vexing 3-back,1.091390065359477,,
1808,6M,101,Calming 1-back,0.9101003365384616,,
1809,6M,101,Calming 3-back,0.9315364244186045,,
1810,6M,101,Vexing 1-back,1.0665758735440931,,
1811,6M,101,Vexing 3-back,1.0914093516209475,,
1812,6M,102,Calming 1-back,0.9149163985594237,,
1813,6M,102,Calming 3-back,0.9313682333333333,,
1814,6M,102,Vexing 1-back,1.0665836666666666,,
1815,6M,102,Vexing 3-back,1.0913554035567716,,
1816,6M,103,Calming 1-back,0.9108948497854078,,
1817,6M,103,Calming 3-back,0.9313915600775193,,
1818,6M,103,Vexing 1-back,1.0666984984984984,,
1819,6M,103,Vexing 3-back,1.0912676691729322,,
1820,6M,104,Calming 1-back,0.9070425162972622,,
1821,6M,104,Calming 3-back,0.9313111229428848,,
1822,6M,104,Vexing 1-back,1.0666297362110309,,
1823,6M,104,Vexing 3-back,1.0823162972620597,,
1824,6M,105,Calming 1-back,0.9075534714285713,,
1825,6M,105,Calming 3-back,0.931421931330472,,
1826,6M,105,Vexing 1-back,1.0667276315789473,,
1827,6M,105,Vexing 3-back,1.0788682395644285,,
1828,6M,106,Calming 1-back,0.9063699684044233,,
1829,6M,106,Calming 3-back,0.931428410852713,,
1830,6M,106,Vexing 1-back,1.054284005979073,,
1831,6M,106,Vexing 3-back,1.078786931268151,,
1832,6M,107,Calming 1-back,0.906491521972133,,
1833,6M,107,Calming 3-back,0.931400694183865,,
1834,6M,107,Vexing 1-back,1.0544556082148497,,
1835,6M,107,Vexing 3-back,1.0786764331210192,,
1836,6M,108,Calming 1-back,0.9064485000000001,,
1837,6M,108,Calming 3-back,0.9314516963448922,,
1838,6M,108,Vexing 1-back,1.054458333333333,,
1839,6M,108,Vexing 3-back,1.0726981779206857,,
1840,6M,109,Calming 1-back,0.9064819190404799,,
1841,6M,109,Calming 3-back,0.9315067999999999,,
1842,6M,109,Vexing 1-back,1.0542795841209829,,
1843,6M,109,Vexing 3-back,1.0669698817106459,,
1844,6M,110,Calming 1-back,0.9064053493975904,,
1845,6M,110,Calming 3-back,0.9315648999999999,,
1846,6M,110,Vexing 1-back,1.0543737999999998,,
1847,6M,110,Vexing 3-back,1.0670153636363635,,
1848,6M,111,Calming 1-back,0.9065669201877935,,
1849,6M,111,Calming 3-back,0.870341042253521,,
1850,6M,111,Vexing 1-back,1.163096124031008,,
1851,6M,111,Vexing 3-back,1.0667656644034915,,
1852,6M,112,Calming 1-back,0.906383656716418,,
1853,6M,112,Calming 3-back,0.8703194909090909,,
1854,6M,112,Vexing 1-back,1.1418666321243525,,
1855,6M,112,Vexing 3-back,1.0667527589545012,,
1856,6M,113,Calming 1-back,0.8947307240437159,,
1857,6M,113,Calming 3-back,0.8701941763565891,,
1858,6M,113,Vexing 1-back,1.1407071135430917,,
1859,6M,113,Vexing 3-back,1.066772894482091,,
1860,6M,114,Calming 1-back,0.8936132056451612,,
1861,6M,114,Calming 3-back,0.8701566929133858,,
1862,6M,114,Vexing 1-back,1.140625,,
1863,6M,114,Vexing 3-back,1.054369167803547,,
1864,6M,115,Calming 1-back,0.894705134730539,,
1865,6M,115,Calming 3-back,0.8700460727272726,,
1866,6M,115,Vexing 1-back,1.1406149842271294,,
1867,6M,115,Vexing 3-back,1.0544608695652171,,
1868,6M,116,Calming 1-back,0.8852278864353313,,
1869,6M,116,Calming 3-back,0.8702818767908309,,
1870,6M,116,Vexing 1-back,1.1277179910044979,,
1871,6M,116,Vexing 3-back,1.0544863721804512,,
1872,6M,117,Calming 1-back,0.887008197747184,,
1873,6M,117,Calming 3-back,0.8724875037369209,,
1874,6M,117,Vexing 1-back,1.1276874000000001,,
1875,6M,117,Vexing 3-back,1.055275989085948,,
1876,6M,118,Calming 1-back,0.89391535,,
1877,6M,118,Calming 3-back,0.8702011616650533,,
1878,6M,118,Vexing 1-back,1.1277164465786313,,
1879,6M,118,Vexing 3-back,1.0547235374149657,,
1880,6M,119,Calming 1-back,0.8826319486081371,,
1881,6M,119,Calming 3-back,0.8704954,,
1882,6M,119,Vexing 1-back,1.11579081803005,,
1883,6M,119,Vexing 3-back,1.054468528610354,,
1884,6M,120,Calming 1-back,0.8819048640915595,,
1885,6M,120,Calming 3-back,0.8702279380445305,,
1886,6M,120,Vexing 1-back,1.1157164310954064,,
1887,6M,120,Vexing 3-back,1.0544177623990771,,
1888,6M,121,Calming 1-back,0.8817067454350161,,
1889,6M,121,Calming 3-back,0.8702661858664085,,
1890,6M,121,Vexing 1-back,1.1075273356401383,,
1891,6M,121,Vexing 3-back,1.045634845735027,,
1892,6M,122,Calming 1-back,0.8819702569593149,,
1893,6M,122,Calming 3-back,0.8700547240411599,,
1894,6M,122,Vexing 1-back,1.1032559201141225,,
1895,6M,122,Vexing 3-back,1.0430542157751588,,
1896,6M,123,Calming 1-back,0.8817769981238275,,
1897,6M,123,Calming 3-back,0.8701348112294288,,
1898,6M,123,Vexing 1-back,1.103246038251366,,
1899,6M,123,Vexing 3-back,1.0428395872420262,,
1900,6M,124,Calming 1-back,0.8819963813813815,,
1901,6M,124,Calming 3-back,0.8702420860495437,,
1902,6M,124,Vexing 1-back,1.1031184254606365,,
1903,6M,124,Vexing 3-back,1.0427967197750703,,
1904,6M,125,Calming 1-back,0.8816843193997856,,
1905,6M,125,Calming 3-back,0.8702012429906542,,
1906,6M,125,Vexing 1-back,1.1033549494949493,,
1907,6M,125,Vexing 3-back,1.0427670600858365,,
1908,6M,126,Calming 1-back,0.8817229215358933,,
1909,6M,126,Calming 3-back,0.8701787704918033,,
1910,6M,126,Vexing 1-back,1.0915473333333334,,
1911,6M,126,Vexing 3-back,1.0428315789473683,,
1912,6M,127,Calming 1-back,0.8818514353312304,,
1913,6M,127,Calming 3-back,0.8703368862275449,,
1914,6M,127,Vexing 1-back,1.0913874060150375,,
1915,6M,127,Vexing 3-back,1.0332,,
1916,6M,128,Calming 1-back,0.88203355,,
1917,6M,128,Calming 3-back,0.8679323774954627,,
1918,6M,128,Vexing 1-back,1.0915944029850744,,
1919,6M,128,Vexing 3-back,1.0298273798730733,,
1920,6M,129,Calming 1-back,0.8820227682403434,,
1921,6M,129,Calming 3-back,0.8654889212007505,,
1922,6M,129,Vexing 1-back,1.0817869627507162,,
1923,6M,129,Vexing 3-back,1.0299257741347905,,
1924,6M,130,Calming 1-back,0.8817991434262948,,
1925,6M,130,Calming 3-back,0.8585376019417476,,
1926,6M,130,Vexing 1-back,1.0790551159618007,,
1927,6M,130,Vexing 3-back,1.029816770186335,,
1928,6M,131,Calming 1-back,0.882000596590909,,
1929,6M,131,Calming 3-back,0.8586224225352114,,
1930,6M,131,Vexing 1-back,1.0789004995004992,,
1931,6M,131,Vexing 3-back,1.0300156513589502,,
1932,6M,132,Calming 1-back,0.881945909943715,,
1933,6M,132,Calming 3-back,0.8593520488721805,,
1934,6M,132,Vexing 1-back,1.0790072784810125,,
1935,6M,132,Vexing 3-back,1.030047,,
1936,6M,133,Calming 1-back,0.8463346428571428,,
1937,6M,133,Calming 3-back,0.8585154114230398,,
1938,6M,133,Vexing 1-back,1.02981914893617,,
1939,6M,133,Vexing 3-back,1.0659584427767352,,
1940,6M,134,Calming 1-back,0.8465167408376963,,
1941,6M,134,Calming 3-back,0.858527265037594,,
1942,6M,134,Vexing 1-back,1.0179337524177947,,
1943,6M,134,Vexing 3-back,1.0552089971883785,,
1944,6M,135,Calming 1-back,0.8464164612676056,,
1945,6M,135,Calming 3-back,0.8583800468603562,,
1946,6M,135,Vexing 1-back,1.017821077844311,,
1947,6M,135,Vexing 3-back,1.0543490785645002,,
1948,6M,136,Calming 1-back,0.8464422203672787,,
1949,6M,136,Calming 3-back,0.8583809868421053,,
1950,6M,136,Vexing 1-back,1.0179256371814094,,
1951,6M,136,Vexing 3-back,1.0544391891891889,,
1952,6M,137,Calming 1-back,0.8464061075949366,,
1953,6M,137,Calming 3-back,0.8585026934984521,,
1954,6M,137,Vexing 1-back,1.0180689265536722,,
1955,6M,137,Vexing 3-back,1.0546704225352113,,
1956,6M,138,Calming 1-back,0.8465083,,
1957,6M,138,Calming 3-back,0.8583488353048225,,
1958,6M,138,Vexing 1-back,1.0179326454033768,,
1959,6M,138,Vexing 3-back,1.0546149999999999,,
1960,6M,139,Calming 1-back,0.846291393442623,,
1961,6M,139,Calming 3-back,0.8585816213683225,,
1962,6M,139,Vexing 1-back,1.018081309686221,,
1963,6M,139,Vexing 3-back,1.0545387543252591,,
1964,6M,140,Calming 1-back,0.8372909735576923,,
1965,6M,140,Calming 3-back,0.8586055856727977,,
1966,6M,140,Vexing 1-back,1.0072419626168225,,
1967,6M,140,Vexing 3-back,1.0546467511885895,,
1968,6M,141,Calming 1-back,0.8339719321148825,,
1969,6M,141,Calming 3-back,0.858537917917918,,
1970,6M,141,Vexing 1-back,1.0052375394321764,,
1971,6M,141,Vexing 3-back,1.0473074971164933,,
1972,6M,142,Calming 1-back,0.846627110778443,,
1973,6M,142,Calming 3-back,0.8564973569482289,,
1974,6M,142,Vexing 1-back,1.0055778969957079,,
1975,6M,142,Vexing 3-back,1.0426161445783129,,
1976,6M,143,Calming 1-back,0.8410211379310345,,
1977,6M,143,Calming 3-back,0.8583299653579677,,
1978,6M,143,Vexing 1-back,1.005499937421777,,
1979,6M,143,Vexing 3-back,1.0429151428571426,,
1980,6M,144,Calming 1-back,0.8346341176470589,,
1981,6M,144,Calming 3-back,0.8582937268722467,,
1982,6M,144,Vexing 1-back,1.0053861307420495,,
1983,6M,144,Vexing 3-back,1.0427434725848561,,
1984,6M,145,Calming 1-back,0.833988963165075,,
1985,6M,145,Calming 3-back,0.8568151782363979,,
1986,6M,145,Vexing 1-back,1.005358286252354,,
1987,6M,145,Vexing 3-back,1.0428612499999996,,
1988,6M,146,Calming 1-back,0.8339973572120039,,
1989,6M,146,Calming 3-back,0.8509838677354709,,
1990,6M,146,Vexing 1-back,1.0054884231536922,,
1991,6M,146,Vexing 3-back,1.0405335731414866,,
1992,6M,147,Calming 1-back,0.8338883625,,
1993,6M,147,Calming 3-back,0.8464102908067542,,
1994,6M,147,Vexing 1-back,1.0053377926421405,,
1995,6M,147,Vexing 3-back,1.0348948832035592,,
1996,6M,148,Calming 1-back,0.8340821773142112,,
1997,6M,148,Calming 3-back,0.8461241056422569,,
1998,6M,148,Vexing 1-back,1.005354119850187,,
1999,6M,148,Vexing 3-back,1.032971994535519,,
2000,6M,149,Calming 1-back,0.8339757160048135,,
2001,6M,149,Calming 3-back,0.8461250173010378,,
2002,6M,149,Vexing 1-back,1.0052546405228755,,
2003,6M,149,Vexing 3-back,1.029903269754768,,
2004,6M,150,Calming 1-back,0.8339367891156463,,
2005,6M,150,Calming 3-back,0.8463491340018231,,
2006,6M,150,Vexing 1-back,1.00525425,,
2007,6M,150,Vexing 3-back,1.0299428724544477,,
2008,6M,151,Calming 1-back,0.834010928104575,,
2009,6M,151,Calming 3-back,0.8464542635658915,,
2010,6M,151,Vexing 1-back,0.9960787021857923,,
2011,6M,151,Vexing 3-back,1.0300163749999998,,
2012,6M,152,Calming 1-back,0.8338355635491607,,
2013,6M,152,Calming 3-back,0.846507275307474,,
2014,6M,152,Vexing 1-back,0.9935197166666667,,
2015,6M,152,Vexing 3-back,1.030033212010919,,
2016,6M,153,Calming 1-back,0.8338305282112844,,
2017,6M,153,Calming 3-back,0.846493642143506,,
2018,6M,153,Vexing 1-back,0.9936776333333331,,
2019,6M,153,Vexing 3-back,1.0298959927140257,,
2020,6M,154,Calming 1-back,0.8338065282583623,,
2021,6M,154,Calming 3-back,0.8463560449859419,,
2022,6M,154,Vexing 1-back,0.993541212723658,,
2023,6M,154,Vexing 3-back,1.0250805043646942,,
2024,6M,155,Calming 1-back,0.8217265027322403,,
2025,6M,155,Calming 3-back,0.8339282881197381,,
2026,6M,155,Vexing 1-back,0.9564804315196999,,
2027,6M,155,Vexing 3-back,1.0180632863849766,,
2028,6M,156,Calming 1-back,0.8217910817307691,,
2029,6M,156,Calming 3-back,0.8340680542563141,,
2030,6M,156,Vexing 1-back,0.9639087206020697,,
2031,6M,156,Vexing 3-back,1.0100720037453181,,
2032,6M,157,Calming 1-back,0.8218320350877193,,
2033,6M,157,Calming 3-back,0.8339802153558052,,
2034,6M,157,Vexing 1-back,0.9573531121642971,,
2035,6M,157,Vexing 3-back,1.0053753283302063,,
2036,6M,158,Calming 1-back,0.821694133697135,,
2037,6M,158,Calming 3-back,0.8286234647887324,,
2038,6M,158,Vexing 1-back,0.9564684825870646,,
2039,6M,158,Vexing 3-back,1.0053205149501658,,
2040,6M,159,Calming 1-back,0.8218846056782334,,
2041,6M,159,Calming 3-back,0.8341223352713178,,
2042,6M,159,Vexing 1-back,0.9563739530988274,,
2043,6M,159,Vexing 3-back,1.0053279968454258,,
2044,6M,160,Calming 1-back,0.8221277287066248,,
2045,6M,160,Calming 3-back,0.834099436795995,,
2046,6M,160,Vexing 1-back,0.9561571830985914,,
2047,6M,160,Vexing 3-back,1.0052583094555871,,
2048,6M,161,Calming 1-back,0.8221428981723237,,
2049,6M,161,Calming 3-back,0.8340544141689372,,
2050,6M,161,Vexing 1-back,0.956377425,,
2051,6M,161,Vexing 3-back,0.9941708386075949,,
2052,6M,162,Calming 1-back,0.8221120714285716,,
2053,6M,162,Calming 3-back,0.83392294770206,,
2054,6M,162,Vexing 1-back,0.9563652924393721,,
2055,6M,162,Vexing 3-back,0.9934687025948102,,
2056,6M,163,Calming 1-back,0.8220378537170262,,
2057,6M,163,Calming 3-back,0.8341091972789115,,
2058,6M,163,Vexing 1-back,0.9562082380952381,,
2059,6M,163,Vexing 3-back,0.9937290645879733,,
2060,6M,164,Calming 1-back,0.8168720875,,
2061,6M,164,Calming 3-back,0.8339539437984497,,
2062,6M,164,Vexing 1-back,0.9562823537803138,,
2063,6M,164,Vexing 3-back,0.993772987987988,,
2064,6M,165,Calming 1-back,0.8095613444444444,,
2065,6M,165,Calming 3-back,0.8340914751958225,,
2066,6M,165,Vexing 1-back,0.9517102355460386,,
2067,6M,165,Vexing 3-back,0.9936592356687899,,
2068,6M,166,Calming 1-back,0.8212128337874661,,
2069,6M,166,Calming 3-back,0.8306161925133689,,
2070,6M,166,Vexing 1-back,0.9519410313315927,,
2071,6M,166,Vexing 3-back,0.9819573452157597,,
2072,6M,167,Calming 1-back,0.8094577861163228,,
2073,6M,167,Calming 3-back,0.834113395149786,,
2074,6M,167,Vexing 1-back,0.9441370544090056,,
2075,6M,167,Vexing 3-back,0.9811495359417652,,
2076,6M,168,Calming 1-back,0.8098098666666667,,
2077,6M,168,Calming 3-back,0.8221367745803357,,
2078,6M,168,Vexing 1-back,0.9438740600000001,,
2079,6M,168,Vexing 3-back,0.9810038627819548,,
2080,6M,169,Calming 1-back,0.8095212143928036,,
2081,6M,169,Calming 3-back,0.8256052720450281,,
2082,6M,169,Vexing 1-back,0.9442652430555557,,
2083,6M,169,Vexing 3-back,0.9810886210131331,,
2084,6M,170,Calming 1-back,0.8093712190812721,,
2085,6M,170,Calming 3-back,0.8262838996138995,,
2086,6M,170,Vexing 1-back,0.944033795180723,,
2087,6M,170,Vexing 3-back,0.9811328464419475,,
2088,6M,171,Calming 1-back,0.8095629500000001,,
2089,6M,171,Calming 3-back,0.8225981784037558,,
2090,6M,171,Vexing 1-back,0.9440496976241901,,
2091,6M,171,Vexing 3-back,0.9809249850299401,,
2092,6M,172,Calming 1-back,0.809543818011257,,
2093,6M,172,Calming 3-back,0.8220689689689689,,
2094,6M,172,Vexing 1-back,0.9442045762711866,,
2095,6M,172,Vexing 3-back,0.9810243352059924,,
2096,6M,173,Calming 1-back,0.8094921555252388,,
2097,6M,173,Calming 3-back,0.8221063909774435,,
2098,6M,173,Vexing 1-back,0.9442064987405542,,
2099,6M,173,Vexing 3-back,0.9810698969072164,,
2100,6M,174,Calming 1-back,0.8093728218694886,,
2101,6M,174,Calming 3-back,0.8219383009708738,,
2102,6M,174,Vexing 1-back,0.9441839484978541,,
2103,6M,174,Vexing 3-back,0.9809821839080459,,
2104,6M,175,Calming 1-back,0.80945047008547,,
2105,6M,175,Calming 3-back,0.8219755849056604,,
2106,6M,175,Vexing 1-back,0.9438387043189366,,
2107,6M,175,Vexing 3-back,0.9809155388940957,,
2108,6M,176,Calming 1-back,0.8096941113490365,,
2109,6M,176,Calming 3-back,0.8218623248053392,,
2110,6M,176,Vexing 1-back,0.9439557500000001,,
2111,6M,176,Vexing 3-back,0.9692076427923846,,
2112,8M,1,Calming 1-back,6.234626621490804,0.6818181818181818,506.1363636363636
2113,8M,1,Calming 3-back,6.366536082474226,,
2114,8M,1,Vexing 1-back,6.521260309777348,0.8636363636363636,260.27272727272725
2115,8M,1,Vexing 3-back,6.402890135396517,,
