,TrialNumber,n_back,Stimulus_Letter,Response_Time,Correct_Response,Response,participant_id,correct,session_type
0,1,1-Back,L,0.0,3.0,,Subject11,0,Calming
1,1,1-Back,A,487.0,3.0,3.0,Subject11,1,Calming
2,1,1-Back,E,222.0,3.0,3.0,Subject11,1,Calming
3,1,1-Back,E,189.0,4.0,4.0,Subject11,1,Calming
4,1,1-Back,E,74.0,4.0,4.0,Subject11,1,Calming
5,1,1-Back,O,417.0,3.0,3.0,Subject11,1,Calming
6,1,1-Back,A,464.0,4.0,4.0,Subject11,1,Calming
7,1,1-Back,A,0.0,4.0,,Subject11,0,Calming
8,1,1-Back,H,785.0,3.0,3.0,Subject11,1,Calming
9,1,1-Back,J,477.0,3.0,3.0,Subject11,1,Calming
10,1,1-Back,D,358.0,3.0,3.0,Subject11,1,Calming
11,1,1-Back,B,302.0,3.0,3.0,Subject11,1,Calming
12,1,1-Back,L,138.0,3.0,4.0,Subject11,0,Calming
13,1,1-Back,V,427.0,3.0,3.0,Subject11,1,Calming
14,1,1-Back,V,343.0,4.0,3.0,Subject11,0,Calming
15,1,1-Back,N,697.0,3.0,3.0,Subject11,1,Calming
16,1,1-Back,V,666.0,3.0,3.0,Subject11,1,Calming
17,1,1-Back,L,763.0,3.0,3.0,Subject11,1,Calming
18,1,1-Back,A,166.0,3.0,3.0,Subject11,1,Calming
19,1,1-Back,E,116.0,3.0,3.0,Subject11,1,Calming
20,1,1-Back,J,35.0,3.0,3.0,Subject11,1,Calming
21,1,1-Back,S,5.0,3.0,3.0,Subject11,1,Calming
22,2,3-Back,P,0.0,3.0,,Subject11,0,Calming
23,2,3-Back,F,0.0,3.0,,Subject11,0,Calming
24,2,3-Back,Q,0.0,3.0,,Subject11,0,Calming
25,2,3-Back,C,171.0,3.0,4.0,Subject11,0,Calming
26,2,3-Back,N,235.0,3.0,3.0,Subject11,1,Calming
27,2,3-Back,P,338.0,3.0,3.0,Subject11,1,Calming
28,2,3-Back,C,0.0,4.0,,Subject11,0,Calming
29,2,3-Back,N,678.0,3.0,3.0,Subject11,1,Calming
30,2,3-Back,P,576.0,4.0,3.0,Subject11,0,Calming
31,2,3-Back,C,529.0,4.0,3.0,Subject11,0,Calming
32,2,3-Back,N,0.0,4.0,,Subject11,0,Calming
33,2,3-Back,V,904.0,3.0,3.0,Subject11,1,Calming
34,2,3-Back,Q,699.0,3.0,3.0,Subject11,1,Calming
35,2,3-Back,M,475.0,3.0,3.0,Subject11,1,Calming
36,2,3-Back,H,0.0,3.0,,Subject11,0,Calming
37,2,3-Back,Q,484.0,4.0,3.0,Subject11,0,Calming
38,2,3-Back,X,575.0,3.0,3.0,Subject11,1,Calming
39,2,3-Back,N,1033.0,3.0,3.0,Subject11,1,Calming
40,2,3-Back,Z,543.0,3.0,3.0,Subject11,1,Calming
41,2,3-Back,F,1413.0,3.0,4.0,Subject11,0,Calming
42,2,3-Back,C,0.0,3.0,,Subject11,0,Calming
43,2,3-Back,H,833.0,3.0,3.0,Subject11,1,Calming
44,3,3-Back,D,0.0,3.0,,Subject11,0,Calming
45,3,3-Back,X,0.0,3.0,,Subject11,0,Calming
46,3,3-Back,M,0.0,3.0,,Subject11,0,Calming
47,3,3-Back,I,1288.0,3.0,3.0,Subject11,1,Calming
48,3,3-Back,X,593.0,3.0,4.0,Subject11,0,Calming
49,3,3-Back,M,4.0,4.0,4.0,Subject11,1,Calming
50,3,3-Back,P,0.0,3.0,,Subject11,0,Calming
51,3,3-Back,S,0.0,3.0,,Subject11,0,Calming
52,3,3-Back,A,0.0,3.0,,Subject11,0,Calming
53,3,3-Back,N,536.0,3.0,4.0,Subject11,0,Calming
54,3,3-Back,W,361.0,3.0,3.0,Subject11,1,Calming
55,3,3-Back,V,229.0,3.0,3.0,Subject11,1,Calming
56,3,3-Back,A,0.0,3.0,,Subject11,0,Calming
57,3,3-Back,W,0.0,4.0,,Subject11,0,Calming
58,3,3-Back,B,0.0,3.0,,Subject11,0,Calming
59,3,3-Back,A,382.0,4.0,3.0,Subject11,0,Calming
60,3,3-Back,Y,1087.0,3.0,4.0,Subject11,0,Calming
61,3,3-Back,B,733.0,4.0,4.0,Subject11,1,Calming
62,3,3-Back,A,0.0,4.0,,Subject11,0,Calming
63,3,3-Back,R,0.0,3.0,,Subject11,0,Calming
64,3,3-Back,P,0.0,3.0,,Subject11,0,Calming
65,3,3-Back,C,326.0,3.0,3.0,Subject11,1,Calming
66,4,1-Back,V,0.0,3.0,,Subject11,0,Calming
67,4,1-Back,I,383.0,3.0,3.0,Subject11,1,Calming
68,4,1-Back,Q,0.0,3.0,,Subject11,0,Calming
69,4,1-Back,H,366.0,3.0,3.0,Subject11,1,Calming
70,4,1-Back,C,688.0,3.0,3.0,Subject11,1,Calming
71,4,1-Back,N,28.0,3.0,3.0,Subject11,1,Calming
72,4,1-Back,V,372.0,3.0,3.0,Subject11,1,Calming
73,4,1-Back,Y,193.0,3.0,3.0,Subject11,1,Calming
74,4,1-Back,Y,240.0,4.0,4.0,Subject11,1,Calming
75,4,1-Back,K,582.0,3.0,3.0,Subject11,1,Calming
76,4,1-Back,K,111.0,4.0,4.0,Subject11,1,Calming
77,4,1-Back,I,393.0,3.0,3.0,Subject11,1,Calming
78,4,1-Back,I,78.0,4.0,4.0,Subject11,1,Calming
79,4,1-Back,O,144.0,3.0,3.0,Subject11,1,Calming
80,4,1-Back,E,288.0,3.0,3.0,Subject11,1,Calming
81,4,1-Back,D,223.0,3.0,3.0,Subject11,1,Calming
82,4,1-Back,V,286.0,3.0,3.0,Subject11,1,Calming
83,4,1-Back,V,377.0,4.0,4.0,Subject11,1,Calming
84,4,1-Back,N,36.0,3.0,3.0,Subject11,1,Calming
85,4,1-Back,N,449.0,4.0,4.0,Subject11,1,Calming
86,4,1-Back,D,526.0,3.0,3.0,Subject11,1,Calming
87,4,1-Back,W,164.0,3.0,3.0,Subject11,1,Calming
88,5,3-Back,C,0.0,3.0,,Subject11,0,Calming
89,5,3-Back,B,0.0,3.0,,Subject11,0,Calming
90,5,3-Back,Q,0.0,3.0,,Subject11,0,Calming
91,5,3-Back,Y,464.0,3.0,3.0,Subject11,1,Calming
92,5,3-Back,R,863.0,3.0,3.0,Subject11,1,Calming
93,5,3-Back,I,200.0,3.0,3.0,Subject11,1,Calming
94,5,3-Back,Y,426.0,4.0,4.0,Subject11,1,Calming
95,5,3-Back,N,169.0,3.0,3.0,Subject11,1,Calming
96,5,3-Back,Y,1379.0,3.0,3.0,Subject11,1,Calming
97,5,3-Back,X,890.0,3.0,3.0,Subject11,1,Calming
98,5,3-Back,F,631.0,3.0,3.0,Subject11,1,Calming
99,5,3-Back,U,0.0,3.0,,Subject11,0,Calming
100,5,3-Back,H,323.0,4.0,3.0,Subject11,0,Calming
101,5,3-Back,U,358.0,3.0,3.0,Subject11,1,Calming
102,5,3-Back,U,381.0,3.0,4.0,Subject11,0,Calming
103,5,3-Back,H,0.0,4.0,,Subject11,0,Calming
104,5,3-Back,W,763.0,3.0,3.0,Subject11,1,Calming
105,5,3-Back,U,531.0,4.0,3.0,Subject11,0,Calming
106,5,3-Back,H,706.0,4.0,3.0,Subject11,0,Calming
107,5,3-Back,F,411.0,3.0,3.0,Subject11,1,Calming
108,5,3-Back,I,500.0,3.0,3.0,Subject11,1,Calming
109,5,3-Back,V,955.0,3.0,3.0,Subject11,1,Calming
110,6,1-Back,U,0.0,3.0,,Subject11,0,Calming
111,6,1-Back,R,492.0,3.0,3.0,Subject11,1,Calming
112,6,1-Back,O,41.0,3.0,3.0,Subject11,1,Calming
113,6,1-Back,P,30.0,3.0,3.0,Subject11,1,Calming
114,6,1-Back,P,231.0,4.0,4.0,Subject11,1,Calming
115,6,1-Back,P,495.0,4.0,4.0,Subject11,1,Calming
116,6,1-Back,U,585.0,3.0,3.0,Subject11,1,Calming
117,6,1-Back,Z,47.0,3.0,3.0,Subject11,1,Calming
118,6,1-Back,U,308.0,3.0,3.0,Subject11,1,Calming
119,6,1-Back,M,377.0,3.0,3.0,Subject11,1,Calming
120,6,1-Back,M,439.0,4.0,3.0,Subject11,0,Calming
121,6,1-Back,W,190.0,3.0,3.0,Subject11,1,Calming
122,6,1-Back,I,71.0,3.0,3.0,Subject11,1,Calming
123,6,1-Back,F,36.0,3.0,3.0,Subject11,1,Calming
124,6,1-Back,M,0.0,3.0,,Subject11,0,Calming
125,6,1-Back,A,15.0,3.0,3.0,Subject11,1,Calming
126,6,1-Back,G,403.0,3.0,3.0,Subject11,1,Calming
127,6,1-Back,G,256.0,4.0,4.0,Subject11,1,Calming
128,6,1-Back,R,1350.0,3.0,3.0,Subject11,1,Calming
129,6,1-Back,Q,360.0,3.0,3.0,Subject11,1,Calming
130,6,1-Back,R,291.0,4.0,3.0,Subject11,0,Calming
131,6,1-Back,Q,113.0,3.0,3.0,Subject11,1,Calming
132,7,1-Back,S,0.0,3.0,,Subject11,0,Calming
133,7,1-Back,R,406.0,3.0,3.0,Subject11,1,Calming
134,7,1-Back,V,376.0,3.0,3.0,Subject11,1,Calming
135,7,1-Back,V,308.0,4.0,4.0,Subject11,1,Calming
136,7,1-Back,O,155.0,3.0,3.0,Subject11,1,Calming
137,7,1-Back,A,738.0,3.0,3.0,Subject11,1,Calming
138,7,1-Back,C,50.0,3.0,3.0,Subject11,1,Calming
139,7,1-Back,N,0.0,3.0,,Subject11,0,Calming
140,7,1-Back,Y,0.0,3.0,,Subject11,0,Calming
141,7,1-Back,V,41.0,3.0,3.0,Subject11,1,Calming
142,7,1-Back,V,160.0,4.0,4.0,Subject11,1,Calming
143,7,1-Back,J,35.0,3.0,3.0,Subject11,1,Calming
144,7,1-Back,U,0.0,3.0,,Subject11,0,Calming
145,7,1-Back,U,420.0,4.0,4.0,Subject11,1,Calming
146,7,1-Back,U,86.0,4.0,4.0,Subject11,1,Calming
147,7,1-Back,Y,127.0,3.0,3.0,Subject11,1,Calming
148,7,1-Back,Y,0.0,4.0,,Subject11,0,Calming
149,7,1-Back,J,616.0,3.0,3.0,Subject11,1,Calming
150,7,1-Back,I,111.0,3.0,3.0,Subject11,1,Calming
151,7,1-Back,S,498.0,3.0,3.0,Subject11,1,Calming
152,7,1-Back,U,251.0,3.0,3.0,Subject11,1,Calming
153,7,1-Back,P,8.0,3.0,3.0,Subject11,1,Calming
154,8,3-Back,L,0.0,3.0,,Subject11,0,Calming
155,8,3-Back,A,0.0,3.0,,Subject11,0,Calming
156,8,3-Back,P,0.0,3.0,,Subject11,0,Calming
157,8,3-Back,L,843.0,4.0,4.0,Subject11,1,Calming
158,8,3-Back,A,823.0,4.0,4.0,Subject11,1,Calming
159,8,3-Back,N,446.0,3.0,3.0,Subject11,1,Calming
160,8,3-Back,W,1105.0,3.0,3.0,Subject11,1,Calming
161,8,3-Back,C,0.0,3.0,,Subject11,0,Calming
162,8,3-Back,L,786.0,3.0,3.0,Subject11,1,Calming
163,8,3-Back,W,882.0,4.0,4.0,Subject11,1,Calming
164,8,3-Back,U,266.0,3.0,3.0,Subject11,1,Calming
165,8,3-Back,S,1089.0,3.0,4.0,Subject11,0,Calming
166,8,3-Back,W,1230.0,4.0,4.0,Subject11,1,Calming
167,8,3-Back,Y,0.0,3.0,,Subject11,0,Calming
168,8,3-Back,F,226.0,3.0,3.0,Subject11,1,Calming
169,8,3-Back,L,685.0,3.0,3.0,Subject11,1,Calming
170,8,3-Back,Y,259.0,4.0,4.0,Subject11,1,Calming
171,8,3-Back,U,325.0,3.0,3.0,Subject11,1,Calming
172,8,3-Back,L,1075.0,3.0,4.0,Subject11,0,Calming
173,8,3-Back,I,0.0,3.0,,Subject11,0,Calming
174,8,3-Back,B,0.0,3.0,,Subject11,0,Calming
175,8,3-Back,T,243.0,3.0,3.0,Subject11,1,Calming
176,9,Rest,nan,,,,Subject11,0,Calming
177,10,3-Back,E,0.0,3.0,,Subject11,0,Calming
178,10,3-Back,G,0.0,3.0,,Subject11,0,Calming
179,10,3-Back,S,0.0,3.0,,Subject11,0,Calming
180,10,3-Back,J,1344.0,3.0,3.0,Subject11,1,Calming
181,10,3-Back,Z,328.0,3.0,3.0,Subject11,1,Calming
182,10,3-Back,Q,444.0,3.0,3.0,Subject11,1,Calming
183,10,3-Back,W,818.0,3.0,3.0,Subject11,1,Calming
184,10,3-Back,K,673.0,3.0,3.0,Subject11,1,Calming
185,10,3-Back,Q,403.0,3.0,4.0,Subject11,0,Calming
186,10,3-Back,S,279.0,3.0,3.0,Subject11,1,Calming
187,10,3-Back,M,958.0,3.0,3.0,Subject11,1,Calming
188,10,3-Back,Q,303.0,3.0,4.0,Subject11,0,Calming
189,10,3-Back,S,114.0,4.0,3.0,Subject11,0,Calming
190,10,3-Back,F,165.0,4.0,3.0,Subject11,0,Calming
191,10,3-Back,Q,414.0,4.0,4.0,Subject11,1,Calming
192,10,3-Back,X,0.0,3.0,,Subject11,0,Calming
193,10,3-Back,F,548.0,4.0,4.0,Subject11,1,Calming
194,10,3-Back,K,731.0,3.0,3.0,Subject11,1,Calming
195,10,3-Back,X,585.0,3.0,4.0,Subject11,0,Calming
196,10,3-Back,K,30.0,3.0,3.0,Subject11,1,Calming
197,10,3-Back,R,1173.0,3.0,3.0,Subject11,1,Calming
198,10,3-Back,X,547.0,4.0,4.0,Subject11,1,Calming
199,11,1-Back,B,0.0,3.0,,Subject11,0,Calming
200,11,1-Back,B,299.0,4.0,4.0,Subject11,1,Calming
201,11,1-Back,V,334.0,3.0,3.0,Subject11,1,Calming
202,11,1-Back,P,705.0,3.0,3.0,Subject11,1,Calming
203,11,1-Back,P,67.0,4.0,4.0,Subject11,1,Calming
204,11,1-Back,Q,925.0,3.0,3.0,Subject11,1,Calming
205,11,1-Back,E,767.0,3.0,3.0,Subject11,1,Calming
206,11,1-Back,E,0.0,4.0,,Subject11,0,Calming
207,11,1-Back,M,0.0,3.0,,Subject11,0,Calming
208,11,1-Back,M,135.0,4.0,4.0,Subject11,1,Calming
209,11,1-Back,M,0.0,4.0,,Subject11,0,Calming
210,11,1-Back,T,30.0,3.0,3.0,Subject11,1,Calming
211,11,1-Back,E,720.0,3.0,3.0,Subject11,1,Calming
212,11,1-Back,R,250.0,3.0,3.0,Subject11,1,Calming
213,11,1-Back,X,71.0,3.0,3.0,Subject11,1,Calming
214,11,1-Back,E,607.0,3.0,3.0,Subject11,1,Calming
215,11,1-Back,L,0.0,3.0,,Subject11,0,Calming
216,11,1-Back,B,479.0,3.0,3.0,Subject11,1,Calming
217,11,1-Back,R,455.0,3.0,3.0,Subject11,1,Calming
218,11,1-Back,W,465.0,3.0,3.0,Subject11,1,Calming
219,11,1-Back,W,210.0,4.0,4.0,Subject11,1,Calming
220,11,1-Back,I,487.0,3.0,3.0,Subject11,1,Calming
221,12,1-Back,I,0.0,3.0,,Subject11,0,Calming
222,12,1-Back,T,781.0,3.0,3.0,Subject11,1,Calming
223,12,1-Back,H,89.0,3.0,3.0,Subject11,1,Calming
224,12,1-Back,H,54.0,4.0,4.0,Subject11,1,Calming
225,12,1-Back,Y,1043.0,3.0,3.0,Subject11,1,Calming
226,12,1-Back,G,277.0,3.0,3.0,Subject11,1,Calming
227,12,1-Back,G,114.0,4.0,4.0,Subject11,1,Calming
228,12,1-Back,G,491.0,4.0,4.0,Subject11,1,Calming
229,12,1-Back,Y,279.0,3.0,3.0,Subject11,1,Calming
230,12,1-Back,W,436.0,3.0,3.0,Subject11,1,Calming
231,12,1-Back,W,455.0,4.0,4.0,Subject11,1,Calming
232,12,1-Back,U,895.0,3.0,3.0,Subject11,1,Calming
233,12,1-Back,A,141.0,3.0,3.0,Subject11,1,Calming
234,12,1-Back,U,218.0,3.0,3.0,Subject11,1,Calming
235,12,1-Back,R,417.0,3.0,3.0,Subject11,1,Calming
236,12,1-Back,W,574.0,3.0,3.0,Subject11,1,Calming
237,12,1-Back,P,158.0,3.0,3.0,Subject11,1,Calming
238,12,1-Back,Q,247.0,3.0,3.0,Subject11,1,Calming
239,12,1-Back,C,0.0,3.0,,Subject11,0,Calming
240,12,1-Back,A,55.0,3.0,3.0,Subject11,1,Calming
241,12,1-Back,A,85.0,4.0,4.0,Subject11,1,Calming
242,12,1-Back,L,329.0,3.0,3.0,Subject11,1,Calming
243,13,3-Back,A,0.0,3.0,,Subject11,0,Calming
244,13,3-Back,H,0.0,3.0,,Subject11,0,Calming
245,13,3-Back,U,0.0,3.0,,Subject11,0,Calming
246,13,3-Back,J,685.0,3.0,3.0,Subject11,1,Calming
247,13,3-Back,V,347.0,3.0,3.0,Subject11,1,Calming
248,13,3-Back,N,107.0,3.0,3.0,Subject11,1,Calming
249,13,3-Back,J,434.0,3.0,4.0,Subject11,0,Calming
250,13,3-Back,V,204.0,4.0,4.0,Subject11,1,Calming
251,13,3-Back,N,401.0,4.0,4.0,Subject11,1,Calming
252,13,3-Back,U,296.0,3.0,3.0,Subject11,1,Calming
253,13,3-Back,V,277.0,4.0,4.0,Subject11,1,Calming
254,13,3-Back,E,879.0,3.0,3.0,Subject11,1,Calming
255,13,3-Back,D,1181.0,3.0,3.0,Subject11,1,Calming
256,13,3-Back,X,659.0,3.0,3.0,Subject11,1,Calming
257,13,3-Back,Q,83.0,3.0,3.0,Subject11,1,Calming
258,13,3-Back,O,596.0,3.0,3.0,Subject11,1,Calming
259,13,3-Back,X,1060.0,4.0,4.0,Subject11,1,Calming
260,13,3-Back,N,0.0,3.0,,Subject11,0,Calming
261,13,3-Back,O,645.0,4.0,4.0,Subject11,1,Calming
262,13,3-Back,P,1457.0,3.0,3.0,Subject11,1,Calming
263,13,3-Back,T,476.0,3.0,3.0,Subject11,1,Calming
264,13,3-Back,W,564.0,3.0,3.0,Subject11,1,Calming
265,14,3-Back,X,0.0,3.0,,Subject11,0,Calming
266,14,3-Back,K,0.0,3.0,,Subject11,0,Calming
267,14,3-Back,O,0.0,3.0,,Subject11,0,Calming
268,14,3-Back,X,800.0,4.0,4.0,Subject11,1,Calming
269,14,3-Back,K,210.0,4.0,4.0,Subject11,1,Calming
270,14,3-Back,J,488.0,3.0,3.0,Subject11,1,Calming
271,14,3-Back,M,420.0,3.0,3.0,Subject11,1,Calming
272,14,3-Back,G,1019.0,3.0,3.0,Subject11,1,Calming
273,14,3-Back,Y,284.0,3.0,3.0,Subject11,1,Calming
274,14,3-Back,M,675.0,3.0,4.0,Subject11,0,Calming
275,14,3-Back,K,1083.0,3.0,3.0,Subject11,1,Calming
276,14,3-Back,E,895.0,3.0,3.0,Subject11,1,Calming
277,14,3-Back,S,1149.0,3.0,3.0,Subject11,1,Calming
278,14,3-Back,K,658.0,4.0,4.0,Subject11,1,Calming
279,14,3-Back,E,470.0,4.0,4.0,Subject11,1,Calming
280,14,3-Back,F,226.0,3.0,3.0,Subject11,1,Calming
281,14,3-Back,P,538.0,3.0,3.0,Subject11,1,Calming
282,14,3-Back,J,38.0,3.0,3.0,Subject11,1,Calming
283,14,3-Back,F,475.0,4.0,4.0,Subject11,1,Calming
284,14,3-Back,N,798.0,3.0,3.0,Subject11,1,Calming
285,14,3-Back,L,377.0,3.0,3.0,Subject11,1,Calming
286,14,3-Back,T,242.0,3.0,3.0,Subject11,1,Calming
287,15,1-Back,V,0.0,3.0,,Subject11,0,Calming
288,15,1-Back,J,195.0,3.0,3.0,Subject11,1,Calming
289,15,1-Back,U,167.0,3.0,3.0,Subject11,1,Calming
290,15,1-Back,J,285.0,3.0,3.0,Subject11,1,Calming
291,15,1-Back,J,876.0,4.0,4.0,Subject11,1,Calming
292,15,1-Back,J,169.0,4.0,4.0,Subject11,1,Calming
293,15,1-Back,K,208.0,3.0,3.0,Subject11,1,Calming
294,15,1-Back,K,125.0,3.0,4.0,Subject11,0,Calming
295,15,1-Back,F,67.0,3.0,3.0,Subject11,1,Calming
296,15,1-Back,F,34.0,4.0,4.0,Subject11,1,Calming
297,15,1-Back,M,273.0,3.0,3.0,Subject11,1,Calming
298,15,1-Back,B,615.0,3.0,3.0,Subject11,1,Calming
299,15,1-Back,O,71.0,3.0,3.0,Subject11,1,Calming
300,15,1-Back,B,161.0,3.0,3.0,Subject11,1,Calming
301,15,1-Back,W,295.0,3.0,3.0,Subject11,1,Calming
302,15,1-Back,Z,70.0,3.0,3.0,Subject11,1,Calming
303,15,1-Back,Z,364.0,4.0,4.0,Subject11,1,Calming
304,15,1-Back,Y,257.0,3.0,3.0,Subject11,1,Calming
305,15,1-Back,Z,175.0,3.0,3.0,Subject11,1,Calming
306,15,1-Back,E,0.0,3.0,,Subject11,0,Calming
307,15,1-Back,A,5.0,3.0,3.0,Subject11,1,Calming
308,15,1-Back,A,412.0,4.0,4.0,Subject11,1,Calming
309,16,3-Back,J,0.0,3.0,,Subject11,0,Calming
310,16,3-Back,O,0.0,3.0,,Subject11,0,Calming
311,16,3-Back,X,0.0,3.0,,Subject11,0,Calming
312,16,3-Back,V,305.0,3.0,3.0,Subject11,1,Calming
313,16,3-Back,X,0.0,3.0,,Subject11,0,Calming
314,16,3-Back,Y,48.0,3.0,3.0,Subject11,1,Calming
315,16,3-Back,G,0.0,3.0,,Subject11,0,Calming
316,16,3-Back,A,148.0,3.0,3.0,Subject11,1,Calming
317,16,3-Back,C,911.0,3.0,3.0,Subject11,1,Calming
318,16,3-Back,G,404.0,4.0,4.0,Subject11,1,Calming
319,16,3-Back,O,816.0,4.0,3.0,Subject11,0,Calming
320,16,3-Back,L,889.0,3.0,3.0,Subject11,1,Calming
321,16,3-Back,H,718.0,3.0,3.0,Subject11,1,Calming
322,16,3-Back,O,775.0,4.0,4.0,Subject11,1,Calming
323,16,3-Back,Y,1147.0,3.0,3.0,Subject11,1,Calming
324,16,3-Back,H,365.0,4.0,4.0,Subject11,1,Calming
325,16,3-Back,I,1476.0,3.0,3.0,Subject11,1,Calming
326,16,3-Back,N,804.0,3.0,3.0,Subject11,1,Calming
327,16,3-Back,I,1129.0,3.0,3.0,Subject11,1,Calming
328,16,3-Back,D,542.0,3.0,3.0,Subject11,1,Calming
329,16,3-Back,N,407.0,4.0,4.0,Subject11,1,Calming
330,16,3-Back,W,548.0,3.0,3.0,Subject11,1,Calming
331,17,1-Back,I,0.0,3.0,,Subject11,0,Calming
332,17,1-Back,T,1329.0,3.0,3.0,Subject11,1,Calming
333,17,1-Back,H,387.0,3.0,3.0,Subject11,1,Calming
334,17,1-Back,H,218.0,4.0,4.0,Subject11,1,Calming
335,17,1-Back,Y,56.0,3.0,3.0,Subject11,1,Calming
336,17,1-Back,G,480.0,3.0,3.0,Subject11,1,Calming
337,17,1-Back,G,385.0,4.0,4.0,Subject11,1,Calming
338,17,1-Back,G,231.0,4.0,4.0,Subject11,1,Calming
339,17,1-Back,Y,151.0,3.0,3.0,Subject11,1,Calming
340,17,1-Back,W,0.0,3.0,,Subject11,0,Calming
341,17,1-Back,W,270.0,4.0,4.0,Subject11,1,Calming
342,17,1-Back,U,161.0,3.0,3.0,Subject11,1,Calming
343,17,1-Back,A,377.0,3.0,3.0,Subject11,1,Calming
344,17,1-Back,U,286.0,3.0,3.0,Subject11,1,Calming
345,17,1-Back,R,613.0,3.0,3.0,Subject11,1,Calming
346,17,1-Back,W,282.0,3.0,3.0,Subject11,1,Calming
347,17,1-Back,P,444.0,3.0,3.0,Subject11,1,Calming
348,17,1-Back,Q,224.0,3.0,3.0,Subject11,1,Calming
349,17,1-Back,C,74.0,3.0,3.0,Subject11,1,Calming
350,17,1-Back,A,219.0,3.0,3.0,Subject11,1,Calming
351,17,1-Back,A,159.0,4.0,4.0,Subject11,1,Calming
352,17,1-Back,L,135.0,3.0,3.0,Subject11,1,Calming
353,1,1-Back,L,0.0,3.0,,Subject11,0,Vexing
354,1,1-Back,Q,0.0,3.0,,Subject11,0,Vexing
355,1,1-Back,U,318.0,3.0,3.0,Subject11,1,Vexing
356,1,1-Back,O,98.0,3.0,3.0,Subject11,1,Vexing
357,1,1-Back,U,271.0,3.0,3.0,Subject11,1,Vexing
358,1,1-Back,U,134.0,4.0,4.0,Subject11,1,Vexing
359,1,1-Back,H,71.0,3.0,3.0,Subject11,1,Vexing
360,1,1-Back,V,396.0,3.0,3.0,Subject11,1,Vexing
361,1,1-Back,K,12.0,3.0,3.0,Subject11,1,Vexing
362,1,1-Back,K,115.0,4.0,4.0,Subject11,1,Vexing
363,1,1-Back,K,339.0,4.0,4.0,Subject11,1,Vexing
364,1,1-Back,B,77.0,3.0,3.0,Subject11,1,Vexing
365,1,1-Back,R,265.0,3.0,3.0,Subject11,1,Vexing
366,1,1-Back,F,35.0,4.0,3.0,Subject11,0,Vexing
367,1,1-Back,F,107.0,4.0,4.0,Subject11,1,Vexing
368,1,1-Back,C,456.0,3.0,3.0,Subject11,1,Vexing
369,1,1-Back,G,87.0,3.0,3.0,Subject11,1,Vexing
370,1,1-Back,X,44.0,3.0,3.0,Subject11,1,Vexing
371,1,1-Back,F,203.0,3.0,3.0,Subject11,1,Vexing
372,1,1-Back,M,0.0,3.0,,Subject11,0,Vexing
373,1,1-Back,X,84.0,3.0,3.0,Subject11,1,Vexing
374,1,1-Back,F,400.0,3.0,3.0,Subject11,1,Vexing
375,2,3-Back,Z,0.0,3.0,,Subject11,0,Vexing
376,2,3-Back,U,0.0,3.0,,Subject11,0,Vexing
377,2,3-Back,F,0.0,3.0,,Subject11,0,Vexing
378,2,3-Back,Z,552.0,3.0,4.0,Subject11,0,Vexing
379,2,3-Back,B,975.0,3.0,3.0,Subject11,1,Vexing
380,2,3-Back,L,1173.0,3.0,3.0,Subject11,1,Vexing
381,2,3-Back,K,784.0,3.0,3.0,Subject11,1,Vexing
382,2,3-Back,C,762.0,3.0,3.0,Subject11,1,Vexing
383,2,3-Back,L,83.0,3.0,4.0,Subject11,0,Vexing
384,2,3-Back,J,66.0,3.0,3.0,Subject11,1,Vexing
385,2,3-Back,G,109.0,3.0,3.0,Subject11,1,Vexing
386,2,3-Back,F,399.0,3.0,3.0,Subject11,1,Vexing
387,2,3-Back,J,429.0,4.0,4.0,Subject11,1,Vexing
388,2,3-Back,G,109.0,4.0,4.0,Subject11,1,Vexing
389,2,3-Back,H,0.0,3.0,,Subject11,0,Vexing
390,2,3-Back,E,472.0,3.0,3.0,Subject11,1,Vexing
391,2,3-Back,W,555.0,3.0,3.0,Subject11,1,Vexing
392,2,3-Back,N,526.0,3.0,3.0,Subject11,1,Vexing
393,2,3-Back,X,45.0,3.0,3.0,Subject11,1,Vexing
394,2,3-Back,W,448.0,4.0,4.0,Subject11,1,Vexing
395,2,3-Back,N,102.0,4.0,4.0,Subject11,1,Vexing
396,2,3-Back,X,445.0,4.0,4.0,Subject11,1,Vexing
397,3,1-Back,Y,0.0,3.0,,Subject11,0,Vexing
398,3,1-Back,E,799.0,3.0,3.0,Subject11,1,Vexing
399,3,1-Back,A,498.0,3.0,3.0,Subject11,1,Vexing
400,3,1-Back,A,84.0,4.0,4.0,Subject11,1,Vexing
401,3,1-Back,V,0.0,4.0,,Subject11,0,Vexing
402,3,1-Back,X,71.0,4.0,3.0,Subject11,0,Vexing
403,3,1-Back,X,76.0,4.0,4.0,Subject11,1,Vexing
404,3,1-Back,S,90.0,3.0,3.0,Subject11,1,Vexing
405,3,1-Back,G,0.0,3.0,,Subject11,0,Vexing
406,3,1-Back,P,466.0,3.0,3.0,Subject11,1,Vexing
407,3,1-Back,Y,401.0,3.0,3.0,Subject11,1,Vexing
408,3,1-Back,X,385.0,3.0,3.0,Subject11,1,Vexing
409,3,1-Back,P,34.0,3.0,3.0,Subject11,1,Vexing
410,3,1-Back,U,421.0,3.0,3.0,Subject11,1,Vexing
411,3,1-Back,V,475.0,3.0,3.0,Subject11,1,Vexing
412,3,1-Back,A,372.0,3.0,3.0,Subject11,1,Vexing
413,3,1-Back,A,286.0,4.0,3.0,Subject11,0,Vexing
414,3,1-Back,G,0.0,3.0,,Subject11,0,Vexing
415,3,1-Back,L,119.0,3.0,3.0,Subject11,1,Vexing
416,3,1-Back,W,0.0,3.0,,Subject11,0,Vexing
417,3,1-Back,B,386.0,3.0,3.0,Subject11,1,Vexing
418,3,1-Back,I,438.0,3.0,3.0,Subject11,1,Vexing
419,4,3-Back,F,0.0,3.0,,Subject11,0,Vexing
420,4,3-Back,O,0.0,3.0,,Subject11,0,Vexing
421,4,3-Back,H,0.0,3.0,,Subject11,0,Vexing
422,4,3-Back,W,95.0,3.0,3.0,Subject11,1,Vexing
423,4,3-Back,O,270.0,4.0,4.0,Subject11,1,Vexing
424,4,3-Back,M,304.0,3.0,3.0,Subject11,1,Vexing
425,4,3-Back,L,285.0,3.0,3.0,Subject11,1,Vexing
426,4,3-Back,L,371.0,3.0,3.0,Subject11,1,Vexing
427,4,3-Back,R,142.0,3.0,3.0,Subject11,1,Vexing
428,4,3-Back,E,54.0,3.0,3.0,Subject11,1,Vexing
429,4,3-Back,L,217.0,4.0,4.0,Subject11,1,Vexing
430,4,3-Back,N,0.0,3.0,,Subject11,0,Vexing
431,4,3-Back,J,53.0,3.0,3.0,Subject11,1,Vexing
432,4,3-Back,M,1169.0,3.0,3.0,Subject11,1,Vexing
433,4,3-Back,Y,198.0,3.0,3.0,Subject11,1,Vexing
434,4,3-Back,U,97.0,3.0,3.0,Subject11,1,Vexing
435,4,3-Back,S,476.0,3.0,3.0,Subject11,1,Vexing
436,4,3-Back,Y,0.0,4.0,,Subject11,0,Vexing
437,4,3-Back,M,255.0,3.0,3.0,Subject11,1,Vexing
438,4,3-Back,S,200.0,4.0,4.0,Subject11,1,Vexing
439,4,3-Back,Y,166.0,4.0,4.0,Subject11,1,Vexing
440,4,3-Back,N,483.0,3.0,3.0,Subject11,1,Vexing
441,5,1-Back,A,0.0,3.0,,Subject11,0,Vexing
442,5,1-Back,A,719.0,4.0,4.0,Subject11,1,Vexing
443,5,1-Back,D,568.0,3.0,3.0,Subject11,1,Vexing
444,5,1-Back,M,444.0,3.0,3.0,Subject11,1,Vexing
445,5,1-Back,X,375.0,3.0,3.0,Subject11,1,Vexing
446,5,1-Back,H,446.0,3.0,3.0,Subject11,1,Vexing
447,5,1-Back,U,82.0,3.0,3.0,Subject11,1,Vexing
448,5,1-Back,G,405.0,3.0,3.0,Subject11,1,Vexing
449,5,1-Back,G,83.0,4.0,4.0,Subject11,1,Vexing
450,5,1-Back,G,104.0,4.0,4.0,Subject11,1,Vexing
451,5,1-Back,C,462.0,3.0,3.0,Subject11,1,Vexing
452,5,1-Back,W,87.0,3.0,3.0,Subject11,1,Vexing
453,5,1-Back,Y,426.0,3.0,3.0,Subject11,1,Vexing
454,5,1-Back,Y,103.0,4.0,4.0,Subject11,1,Vexing
455,5,1-Back,N,436.0,3.0,3.0,Subject11,1,Vexing
456,5,1-Back,N,349.0,4.0,4.0,Subject11,1,Vexing
457,5,1-Back,X,161.0,3.0,3.0,Subject11,1,Vexing
458,5,1-Back,M,202.0,3.0,3.0,Subject11,1,Vexing
459,5,1-Back,X,265.0,3.0,3.0,Subject11,1,Vexing
460,5,1-Back,A,114.0,3.0,3.0,Subject11,1,Vexing
461,5,1-Back,D,496.0,3.0,3.0,Subject11,1,Vexing
462,5,1-Back,T,82.0,3.0,3.0,Subject11,1,Vexing
463,6,3-Back,V,0.0,3.0,,Subject11,0,Vexing
464,6,3-Back,D,0.0,3.0,,Subject11,0,Vexing
465,6,3-Back,K,0.0,3.0,,Subject11,0,Vexing
466,6,3-Back,D,482.0,3.0,3.0,Subject11,1,Vexing
467,6,3-Back,Z,227.0,3.0,3.0,Subject11,1,Vexing
468,6,3-Back,J,133.0,3.0,3.0,Subject11,1,Vexing
469,6,3-Back,G,192.0,3.0,3.0,Subject11,1,Vexing
470,6,3-Back,Z,107.0,4.0,4.0,Subject11,1,Vexing
471,6,3-Back,J,1054.0,4.0,3.0,Subject11,0,Vexing
472,6,3-Back,Q,739.0,3.0,3.0,Subject11,1,Vexing
473,6,3-Back,B,917.0,3.0,3.0,Subject11,1,Vexing
474,6,3-Back,Z,299.0,3.0,4.0,Subject11,0,Vexing
475,6,3-Back,Q,0.0,4.0,,Subject11,0,Vexing
476,6,3-Back,B,0.0,4.0,,Subject11,0,Vexing
477,6,3-Back,B,112.0,3.0,3.0,Subject11,1,Vexing
478,6,3-Back,E,268.0,3.0,3.0,Subject11,1,Vexing
479,6,3-Back,G,861.0,3.0,3.0,Subject11,1,Vexing
480,6,3-Back,B,365.0,4.0,4.0,Subject11,1,Vexing
481,6,3-Back,X,0.0,3.0,,Subject11,0,Vexing
482,6,3-Back,U,425.0,3.0,3.0,Subject11,1,Vexing
483,6,3-Back,J,22.0,3.0,3.0,Subject11,1,Vexing
484,6,3-Back,V,339.0,3.0,3.0,Subject11,1,Vexing
485,7,1-Back,A,0.0,3.0,,Subject11,0,Vexing
486,7,1-Back,W,583.0,3.0,3.0,Subject11,1,Vexing
487,7,1-Back,X,69.0,3.0,3.0,Subject11,1,Vexing
488,7,1-Back,M,113.0,3.0,3.0,Subject11,1,Vexing
489,7,1-Back,F,410.0,3.0,3.0,Subject11,1,Vexing
490,7,1-Back,S,455.0,3.0,3.0,Subject11,1,Vexing
491,7,1-Back,E,119.0,3.0,3.0,Subject11,1,Vexing
492,7,1-Back,E,175.0,4.0,4.0,Subject11,1,Vexing
493,7,1-Back,U,215.0,3.0,3.0,Subject11,1,Vexing
494,7,1-Back,Y,487.0,3.0,3.0,Subject11,1,Vexing
495,7,1-Back,Y,158.0,4.0,4.0,Subject11,1,Vexing
496,7,1-Back,Y,473.0,4.0,4.0,Subject11,1,Vexing
497,7,1-Back,V,0.0,3.0,,Subject11,0,Vexing
498,7,1-Back,A,446.0,3.0,3.0,Subject11,1,Vexing
499,7,1-Back,A,491.0,4.0,3.0,Subject11,0,Vexing
500,7,1-Back,G,489.0,3.0,3.0,Subject11,1,Vexing
501,7,1-Back,S,80.0,3.0,3.0,Subject11,1,Vexing
502,7,1-Back,F,5.0,3.0,3.0,Subject11,1,Vexing
503,7,1-Back,I,22.0,3.0,3.0,Subject11,1,Vexing
504,7,1-Back,B,466.0,3.0,3.0,Subject11,1,Vexing
505,7,1-Back,B,36.0,4.0,3.0,Subject11,0,Vexing
506,7,1-Back,T,278.0,3.0,3.0,Subject11,1,Vexing
507,8,3-Back,T,0.0,3.0,,Subject11,0,Vexing
508,8,3-Back,R,0.0,3.0,,Subject11,0,Vexing
509,8,3-Back,A,0.0,3.0,,Subject11,0,Vexing
510,8,3-Back,M,486.0,3.0,3.0,Subject11,1,Vexing
511,8,3-Back,Z,157.0,3.0,3.0,Subject11,1,Vexing
512,8,3-Back,C,425.0,3.0,3.0,Subject11,1,Vexing
513,8,3-Back,M,81.0,3.0,4.0,Subject11,0,Vexing
514,8,3-Back,O,0.0,3.0,,Subject11,0,Vexing
515,8,3-Back,P,0.0,3.0,,Subject11,0,Vexing
516,8,3-Back,M,305.0,4.0,4.0,Subject11,1,Vexing
517,8,3-Back,O,402.0,4.0,4.0,Subject11,1,Vexing
518,8,3-Back,O,477.0,3.0,3.0,Subject11,1,Vexing
519,8,3-Back,B,285.0,3.0,3.0,Subject11,1,Vexing
520,8,3-Back,H,540.0,3.0,3.0,Subject11,1,Vexing
521,8,3-Back,Z,278.0,4.0,3.0,Subject11,0,Vexing
522,8,3-Back,Q,310.0,3.0,3.0,Subject11,1,Vexing
523,8,3-Back,Y,12.0,3.0,3.0,Subject11,1,Vexing
524,8,3-Back,Z,389.0,4.0,4.0,Subject11,1,Vexing
525,8,3-Back,M,761.0,3.0,3.0,Subject11,1,Vexing
526,8,3-Back,R,639.0,3.0,4.0,Subject11,0,Vexing
527,8,3-Back,P,605.0,3.0,3.0,Subject11,1,Vexing
528,8,3-Back,M,600.0,4.0,3.0,Subject11,0,Vexing
529,9,Rest,nan,,,,Subject11,0,Vexing
530,10,1-Back,J,0.0,3.0,,Subject11,0,Vexing
531,10,1-Back,J,278.0,4.0,4.0,Subject11,1,Vexing
532,10,1-Back,N,147.0,3.0,3.0,Subject11,1,Vexing
533,10,1-Back,S,0.0,3.0,,Subject11,0,Vexing
534,10,1-Back,N,0.0,3.0,,Subject11,0,Vexing
535,10,1-Back,N,20.0,4.0,4.0,Subject11,1,Vexing
536,10,1-Back,R,429.0,3.0,3.0,Subject11,1,Vexing
537,10,1-Back,R,149.0,4.0,4.0,Subject11,1,Vexing
538,10,1-Back,I,82.0,3.0,3.0,Subject11,1,Vexing
539,10,1-Back,V,379.0,3.0,3.0,Subject11,1,Vexing
540,10,1-Back,R,382.0,3.0,3.0,Subject11,1,Vexing
541,10,1-Back,P,0.0,3.0,,Subject11,0,Vexing
542,10,1-Back,A,36.0,3.0,3.0,Subject11,1,Vexing
543,10,1-Back,C,484.0,3.0,3.0,Subject11,1,Vexing
544,10,1-Back,V,54.0,4.0,3.0,Subject11,0,Vexing
545,10,1-Back,V,413.0,4.0,4.0,Subject11,1,Vexing
546,10,1-Back,I,455.0,3.0,3.0,Subject11,1,Vexing
547,10,1-Back,L,0.0,3.0,,Subject11,0,Vexing
548,10,1-Back,U,348.0,3.0,3.0,Subject11,1,Vexing
549,10,1-Back,D,439.0,3.0,3.0,Subject11,1,Vexing
550,10,1-Back,P,27.0,3.0,3.0,Subject11,1,Vexing
551,10,1-Back,Y,0.0,3.0,,Subject11,0,Vexing
552,11,3-Back,C,0.0,3.0,,Subject11,0,Vexing
553,11,3-Back,B,0.0,3.0,,Subject11,0,Vexing
554,11,3-Back,Q,0.0,3.0,,Subject11,0,Vexing
555,11,3-Back,Z,247.0,3.0,3.0,Subject11,1,Vexing
556,11,3-Back,J,117.0,3.0,3.0,Subject11,1,Vexing
557,11,3-Back,Q,452.0,4.0,4.0,Subject11,1,Vexing
558,11,3-Back,B,729.0,3.0,3.0,Subject11,1,Vexing
559,11,3-Back,F,278.0,3.0,3.0,Subject11,1,Vexing
560,11,3-Back,B,723.0,3.0,3.0,Subject11,1,Vexing
561,11,3-Back,M,260.0,3.0,3.0,Subject11,1,Vexing
562,11,3-Back,D,498.0,3.0,3.0,Subject11,1,Vexing
563,11,3-Back,Z,451.0,3.0,3.0,Subject11,1,Vexing
564,11,3-Back,L,172.0,3.0,3.0,Subject11,1,Vexing
565,11,3-Back,O,450.0,3.0,3.0,Subject11,1,Vexing
566,11,3-Back,S,114.0,3.0,3.0,Subject11,1,Vexing
567,11,3-Back,A,84.0,3.0,3.0,Subject11,1,Vexing
568,11,3-Back,O,319.0,4.0,4.0,Subject11,1,Vexing
569,11,3-Back,Y,964.0,3.0,3.0,Subject11,1,Vexing
570,11,3-Back,A,781.0,4.0,4.0,Subject11,1,Vexing
571,11,3-Back,U,643.0,3.0,3.0,Subject11,1,Vexing
572,11,3-Back,Y,112.0,4.0,4.0,Subject11,1,Vexing
573,11,3-Back,A,456.0,4.0,4.0,Subject11,1,Vexing
574,12,3-Back,W,0.0,3.0,,Subject11,0,Vexing
575,12,3-Back,Y,0.0,3.0,,Subject11,0,Vexing
576,12,3-Back,E,0.0,3.0,,Subject11,0,Vexing
577,12,3-Back,S,557.0,3.0,3.0,Subject11,1,Vexing
578,12,3-Back,Y,1416.0,4.0,3.0,Subject11,0,Vexing
579,12,3-Back,E,238.0,4.0,4.0,Subject11,1,Vexing
580,12,3-Back,G,684.0,3.0,3.0,Subject11,1,Vexing
581,12,3-Back,Q,0.0,3.0,,Subject11,0,Vexing
582,12,3-Back,V,0.0,3.0,,Subject11,0,Vexing
583,12,3-Back,W,411.0,3.0,3.0,Subject11,1,Vexing
584,12,3-Back,K,160.0,3.0,3.0,Subject11,1,Vexing
585,12,3-Back,D,385.0,3.0,3.0,Subject11,1,Vexing
586,12,3-Back,C,284.0,3.0,3.0,Subject11,1,Vexing
587,12,3-Back,U,19.0,3.0,3.0,Subject11,1,Vexing
588,12,3-Back,V,513.0,3.0,3.0,Subject11,1,Vexing
589,12,3-Back,A,580.0,3.0,3.0,Subject11,1,Vexing
590,12,3-Back,U,372.0,4.0,4.0,Subject11,1,Vexing
591,12,3-Back,X,438.0,3.0,3.0,Subject11,1,Vexing
592,12,3-Back,A,116.0,4.0,4.0,Subject11,1,Vexing
593,12,3-Back,U,408.0,3.0,4.0,Subject11,0,Vexing
594,12,3-Back,X,374.0,4.0,3.0,Subject11,0,Vexing
595,12,3-Back,M,0.0,3.0,,Subject11,0,Vexing
596,13,1-Back,K,0.0,3.0,,Subject11,0,Vexing
597,13,1-Back,B,160.0,3.0,3.0,Subject11,1,Vexing
598,13,1-Back,U,449.0,3.0,3.0,Subject11,1,Vexing
599,13,1-Back,Q,497.0,3.0,3.0,Subject11,1,Vexing
600,13,1-Back,N,366.0,3.0,3.0,Subject11,1,Vexing
601,13,1-Back,O,372.0,3.0,3.0,Subject11,1,Vexing
602,13,1-Back,I,46.0,3.0,3.0,Subject11,1,Vexing
603,13,1-Back,T,0.0,3.0,,Subject11,0,Vexing
604,13,1-Back,W,425.0,3.0,3.0,Subject11,1,Vexing
605,13,1-Back,I,452.0,4.0,3.0,Subject11,0,Vexing
606,13,1-Back,I,94.0,4.0,4.0,Subject11,1,Vexing
607,13,1-Back,U,58.0,3.0,3.0,Subject11,1,Vexing
608,13,1-Back,B,428.0,3.0,3.0,Subject11,1,Vexing
609,13,1-Back,K,288.0,3.0,3.0,Subject11,1,Vexing
610,13,1-Back,Z,907.0,3.0,3.0,Subject11,1,Vexing
611,13,1-Back,I,408.0,3.0,3.0,Subject11,1,Vexing
612,13,1-Back,I,403.0,4.0,4.0,Subject11,1,Vexing
613,13,1-Back,W,494.0,3.0,3.0,Subject11,1,Vexing
614,13,1-Back,W,33.0,4.0,3.0,Subject11,0,Vexing
615,13,1-Back,N,313.0,3.0,3.0,Subject11,1,Vexing
616,13,1-Back,N,437.0,4.0,4.0,Subject11,1,Vexing
617,13,1-Back,T,0.0,3.0,,Subject11,0,Vexing
618,14,3-Back,O,0.0,3.0,,Subject11,0,Vexing
619,14,3-Back,E,0.0,3.0,,Subject11,0,Vexing
620,14,3-Back,X,0.0,3.0,,Subject11,0,Vexing
621,14,3-Back,M,205.0,3.0,3.0,Subject11,1,Vexing
622,14,3-Back,I,172.0,3.0,3.0,Subject11,1,Vexing
623,14,3-Back,P,70.0,3.0,3.0,Subject11,1,Vexing
624,14,3-Back,M,49.0,4.0,4.0,Subject11,1,Vexing
625,14,3-Back,U,90.0,3.0,3.0,Subject11,1,Vexing
626,14,3-Back,D,245.0,3.0,3.0,Subject11,1,Vexing
627,14,3-Back,F,232.0,3.0,3.0,Subject11,1,Vexing
628,14,3-Back,S,0.0,3.0,,Subject11,0,Vexing
629,14,3-Back,D,0.0,4.0,,Subject11,0,Vexing
630,14,3-Back,R,162.0,3.0,3.0,Subject11,1,Vexing
631,14,3-Back,Q,357.0,3.0,3.0,Subject11,1,Vexing
632,14,3-Back,F,325.0,3.0,3.0,Subject11,1,Vexing
633,14,3-Back,A,996.0,3.0,3.0,Subject11,1,Vexing
634,14,3-Back,X,324.0,3.0,3.0,Subject11,1,Vexing
635,14,3-Back,F,339.0,3.0,4.0,Subject11,0,Vexing
636,14,3-Back,A,319.0,4.0,4.0,Subject11,1,Vexing
637,14,3-Back,X,386.0,4.0,4.0,Subject11,1,Vexing
638,14,3-Back,Y,245.0,3.0,3.0,Subject11,1,Vexing
639,14,3-Back,A,218.0,4.0,4.0,Subject11,1,Vexing
640,15,1-Back,F,0.0,3.0,,Subject11,0,Vexing
641,15,1-Back,F,214.0,4.0,4.0,Subject11,1,Vexing
642,15,1-Back,F,235.0,4.0,4.0,Subject11,1,Vexing
643,15,1-Back,N,37.0,3.0,3.0,Subject11,1,Vexing
644,15,1-Back,V,0.0,3.0,,Subject11,0,Vexing
645,15,1-Back,J,232.0,3.0,3.0,Subject11,1,Vexing
646,15,1-Back,O,466.0,3.0,3.0,Subject11,1,Vexing
647,15,1-Back,S,0.0,3.0,,Subject11,0,Vexing
648,15,1-Back,F,364.0,3.0,3.0,Subject11,1,Vexing
649,15,1-Back,A,434.0,3.0,3.0,Subject11,1,Vexing
650,15,1-Back,A,259.0,4.0,4.0,Subject11,1,Vexing
651,15,1-Back,N,397.0,3.0,3.0,Subject11,1,Vexing
652,15,1-Back,O,788.0,3.0,4.0,Subject11,0,Vexing
653,15,1-Back,A,363.0,3.0,3.0,Subject11,1,Vexing
654,15,1-Back,X,268.0,3.0,3.0,Subject11,1,Vexing
655,15,1-Back,U,489.0,3.0,3.0,Subject11,1,Vexing
656,15,1-Back,U,294.0,4.0,4.0,Subject11,1,Vexing
657,15,1-Back,D,131.0,3.0,3.0,Subject11,1,Vexing
658,15,1-Back,D,1.0,4.0,4.0,Subject11,1,Vexing
659,15,1-Back,J,36.0,3.0,3.0,Subject11,1,Vexing
660,15,1-Back,Q,42.0,3.0,3.0,Subject11,1,Vexing
661,15,1-Back,Y,89.0,3.0,3.0,Subject11,1,Vexing
662,16,3-Back,J,0.0,2.0,,Subject11,0,Vexing
663,16,3-Back,H,0.0,2.0,,Subject11,0,Vexing
664,16,3-Back,G,0.0,2.0,,Subject11,0,Vexing
665,16,3-Back,A,440.0,2.0,3.0,Subject11,0,Vexing
666,16,3-Back,B,676.0,2.0,3.0,Subject11,0,Vexing
667,16,3-Back,B,290.0,1.0,3.0,Subject11,0,Vexing
668,16,3-Back,C,244.0,2.0,3.0,Subject11,0,Vexing
669,16,3-Back,J,34.0,2.0,3.0,Subject11,0,Vexing
670,16,3-Back,H,463.0,2.0,3.0,Subject11,0,Vexing
671,16,3-Back,G,227.0,2.0,3.0,Subject11,0,Vexing
672,16,3-Back,G,228.0,1.0,3.0,Subject11,0,Vexing
673,16,3-Back,H,239.0,2.0,4.0,Subject11,0,Vexing
674,16,3-Back,J,940.0,2.0,3.0,Subject11,0,Vexing
675,16,3-Back,A,101.0,2.0,3.0,Subject11,0,Vexing
676,16,3-Back,J,10.0,2.0,3.0,Subject11,0,Vexing
677,16,3-Back,J,56.0,1.0,3.0,Subject11,0,Vexing
678,16,3-Back,G,168.0,2.0,3.0,Subject11,0,Vexing
679,16,3-Back,H,219.0,2.0,4.0,Subject11,0,Vexing
680,16,3-Back,H,1318.0,1.0,3.0,Subject11,0,Vexing
681,16,3-Back,I,364.0,2.0,3.0,Subject11,0,Vexing
682,16,3-Back,I,592.0,1.0,3.0,Subject11,0,Vexing
683,16,3-Back,A,463.0,2.0,3.0,Subject11,0,Vexing
684,17,1-Back,B,0.0,3.0,,Subject11,0,Vexing
685,17,1-Back,B,774.0,4.0,4.0,Subject11,1,Vexing
686,17,1-Back,U,1188.0,3.0,3.0,Subject11,1,Vexing
687,17,1-Back,F,93.0,3.0,3.0,Subject11,1,Vexing
688,17,1-Back,F,30.0,4.0,4.0,Subject11,1,Vexing
689,17,1-Back,T,135.0,3.0,3.0,Subject11,1,Vexing
690,17,1-Back,T,205.0,4.0,4.0,Subject11,1,Vexing
691,17,1-Back,O,407.0,3.0,3.0,Subject11,1,Vexing
692,17,1-Back,R,354.0,3.0,3.0,Subject11,1,Vexing
693,17,1-Back,Q,88.0,3.0,3.0,Subject11,1,Vexing
694,17,1-Back,X,462.0,3.0,3.0,Subject11,1,Vexing
695,17,1-Back,X,66.0,4.0,4.0,Subject11,1,Vexing
696,17,1-Back,R,0.0,3.0,,Subject11,0,Vexing
697,17,1-Back,S,425.0,3.0,3.0,Subject11,1,Vexing
698,17,1-Back,S,133.0,4.0,4.0,Subject11,1,Vexing
699,17,1-Back,L,243.0,3.0,3.0,Subject11,1,Vexing
700,17,1-Back,Q,0.0,3.0,,Subject11,0,Vexing
701,17,1-Back,R,905.0,3.0,3.0,Subject11,1,Vexing
702,17,1-Back,B,157.0,3.0,3.0,Subject11,1,Vexing
703,17,1-Back,F,97.0,3.0,3.0,Subject11,1,Vexing
704,17,1-Back,E,0.0,3.0,,Subject11,0,Vexing
705,17,1-Back,Y,124.0,3.0,3.0,Subject11,1,Vexing
706,1,1-Back,L,0.0,3.0,,Subject3,0,Calming
707,1,1-Back,A,1432.0,3.0,3.0,Subject3,1,Calming
708,1,1-Back,E,825.0,3.0,3.0,Subject3,1,Calming
709,1,1-Back,E,631.0,4.0,4.0,Subject3,1,Calming
710,1,1-Back,E,531.0,4.0,4.0,Subject3,1,Calming
711,1,1-Back,O,421.0,3.0,3.0,Subject3,1,Calming
712,1,1-Back,A,849.0,4.0,3.0,Subject3,0,Calming
713,1,1-Back,A,1141.0,4.0,3.0,Subject3,0,Calming
714,1,1-Back,H,922.0,3.0,3.0,Subject3,1,Calming
715,1,1-Back,J,387.0,3.0,3.0,Subject3,1,Calming
716,1,1-Back,D,344.0,3.0,3.0,Subject3,1,Calming
717,1,1-Back,B,473.0,3.0,3.0,Subject3,1,Calming
718,1,1-Back,L,668.0,3.0,3.0,Subject3,1,Calming
719,1,1-Back,V,290.0,3.0,3.0,Subject3,1,Calming
720,1,1-Back,V,209.0,4.0,4.0,Subject3,1,Calming
721,1,1-Back,N,282.0,3.0,3.0,Subject3,1,Calming
722,1,1-Back,V,797.0,3.0,3.0,Subject3,1,Calming
723,1,1-Back,L,426.0,3.0,3.0,Subject3,1,Calming
724,1,1-Back,A,350.0,3.0,3.0,Subject3,1,Calming
725,1,1-Back,E,290.0,3.0,3.0,Subject3,1,Calming
726,1,1-Back,J,757.0,3.0,3.0,Subject3,1,Calming
727,1,1-Back,S,392.0,3.0,3.0,Subject3,1,Calming
728,2,3-Back,P,0.0,3.0,,Subject3,0,Calming
729,2,3-Back,F,0.0,3.0,,Subject3,0,Calming
730,2,3-Back,Q,0.0,3.0,,Subject3,0,Calming
731,2,3-Back,C,442.0,3.0,3.0,Subject3,1,Calming
732,2,3-Back,N,765.0,3.0,3.0,Subject3,1,Calming
733,2,3-Back,P,1063.0,3.0,3.0,Subject3,1,Calming
734,2,3-Back,C,0.0,4.0,,Subject3,0,Calming
735,2,3-Back,N,1147.0,3.0,3.0,Subject3,1,Calming
736,2,3-Back,P,623.0,4.0,3.0,Subject3,0,Calming
737,2,3-Back,C,462.0,4.0,4.0,Subject3,1,Calming
738,2,3-Back,N,410.0,4.0,3.0,Subject3,0,Calming
739,2,3-Back,V,0.0,3.0,,Subject3,0,Calming
740,2,3-Back,Q,892.0,3.0,3.0,Subject3,1,Calming
741,2,3-Back,M,544.0,3.0,3.0,Subject3,1,Calming
742,2,3-Back,H,555.0,3.0,3.0,Subject3,1,Calming
743,2,3-Back,Q,325.0,4.0,4.0,Subject3,1,Calming
744,2,3-Back,X,529.0,3.0,3.0,Subject3,1,Calming
745,2,3-Back,N,822.0,3.0,3.0,Subject3,1,Calming
746,2,3-Back,Z,532.0,3.0,3.0,Subject3,1,Calming
747,2,3-Back,F,457.0,3.0,3.0,Subject3,1,Calming
748,2,3-Back,C,815.0,3.0,3.0,Subject3,1,Calming
749,2,3-Back,H,356.0,3.0,3.0,Subject3,1,Calming
750,3,3-Back,D,0.0,3.0,,Subject3,0,Calming
751,3,3-Back,X,0.0,3.0,,Subject3,0,Calming
752,3,3-Back,M,0.0,3.0,,Subject3,0,Calming
753,3,3-Back,I,289.0,3.0,3.0,Subject3,1,Calming
754,3,3-Back,X,1378.0,3.0,4.0,Subject3,0,Calming
755,3,3-Back,M,840.0,4.0,4.0,Subject3,1,Calming
756,3,3-Back,P,629.0,3.0,3.0,Subject3,1,Calming
757,3,3-Back,S,560.0,3.0,3.0,Subject3,1,Calming
758,3,3-Back,A,876.0,3.0,4.0,Subject3,0,Calming
759,3,3-Back,N,759.0,3.0,3.0,Subject3,1,Calming
760,3,3-Back,W,191.0,3.0,3.0,Subject3,1,Calming
761,3,3-Back,V,552.0,3.0,3.0,Subject3,1,Calming
762,3,3-Back,A,465.0,3.0,3.0,Subject3,1,Calming
763,3,3-Back,W,381.0,4.0,4.0,Subject3,1,Calming
764,3,3-Back,B,163.0,3.0,3.0,Subject3,1,Calming
765,3,3-Back,A,301.0,4.0,4.0,Subject3,1,Calming
766,3,3-Back,Y,271.0,3.0,3.0,Subject3,1,Calming
767,3,3-Back,B,322.0,4.0,3.0,Subject3,0,Calming
768,3,3-Back,A,519.0,4.0,4.0,Subject3,1,Calming
769,3,3-Back,R,477.0,3.0,3.0,Subject3,1,Calming
770,3,3-Back,P,998.0,3.0,3.0,Subject3,1,Calming
771,3,3-Back,C,859.0,3.0,3.0,Subject3,1,Calming
772,4,1-Back,V,0.0,3.0,,Subject3,0,Calming
773,4,1-Back,I,198.0,3.0,3.0,Subject3,1,Calming
774,4,1-Back,Q,293.0,3.0,3.0,Subject3,1,Calming
775,4,1-Back,H,112.0,3.0,3.0,Subject3,1,Calming
776,4,1-Back,C,97.0,3.0,3.0,Subject3,1,Calming
777,4,1-Back,N,127.0,3.0,3.0,Subject3,1,Calming
778,4,1-Back,V,389.0,3.0,3.0,Subject3,1,Calming
779,4,1-Back,Y,333.0,3.0,3.0,Subject3,1,Calming
780,4,1-Back,Y,267.0,4.0,4.0,Subject3,1,Calming
781,4,1-Back,K,275.0,3.0,3.0,Subject3,1,Calming
782,4,1-Back,K,336.0,4.0,4.0,Subject3,1,Calming
783,4,1-Back,I,472.0,3.0,3.0,Subject3,1,Calming
784,4,1-Back,I,202.0,4.0,4.0,Subject3,1,Calming
785,4,1-Back,O,433.0,3.0,3.0,Subject3,1,Calming
786,4,1-Back,E,647.0,3.0,3.0,Subject3,1,Calming
787,4,1-Back,D,369.0,3.0,3.0,Subject3,1,Calming
788,4,1-Back,V,298.0,3.0,3.0,Subject3,1,Calming
789,4,1-Back,V,665.0,4.0,4.0,Subject3,1,Calming
790,4,1-Back,N,376.0,3.0,3.0,Subject3,1,Calming
791,4,1-Back,N,264.0,4.0,4.0,Subject3,1,Calming
792,4,1-Back,D,259.0,3.0,3.0,Subject3,1,Calming
793,4,1-Back,W,385.0,3.0,3.0,Subject3,1,Calming
794,5,3-Back,C,0.0,3.0,,Subject3,0,Calming
795,5,3-Back,B,0.0,3.0,,Subject3,0,Calming
796,5,3-Back,Q,0.0,3.0,,Subject3,0,Calming
797,5,3-Back,Y,206.0,3.0,3.0,Subject3,1,Calming
798,5,3-Back,R,601.0,3.0,3.0,Subject3,1,Calming
799,5,3-Back,I,674.0,3.0,3.0,Subject3,1,Calming
800,5,3-Back,Y,793.0,4.0,4.0,Subject3,1,Calming
801,5,3-Back,N,1194.0,3.0,3.0,Subject3,1,Calming
802,5,3-Back,Y,935.0,3.0,4.0,Subject3,0,Calming
803,5,3-Back,X,359.0,3.0,3.0,Subject3,1,Calming
804,5,3-Back,F,822.0,3.0,3.0,Subject3,1,Calming
805,5,3-Back,U,650.0,3.0,3.0,Subject3,1,Calming
806,5,3-Back,H,765.0,4.0,3.0,Subject3,0,Calming
807,5,3-Back,U,942.0,3.0,3.0,Subject3,1,Calming
808,5,3-Back,U,507.0,3.0,4.0,Subject3,0,Calming
809,5,3-Back,H,819.0,4.0,4.0,Subject3,1,Calming
810,5,3-Back,W,1092.0,3.0,3.0,Subject3,1,Calming
811,5,3-Back,U,1160.0,4.0,3.0,Subject3,0,Calming
812,5,3-Back,H,1007.0,4.0,4.0,Subject3,1,Calming
813,5,3-Back,F,527.0,3.0,3.0,Subject3,1,Calming
814,5,3-Back,I,624.0,3.0,3.0,Subject3,1,Calming
815,5,3-Back,V,774.0,3.0,3.0,Subject3,1,Calming
816,6,1-Back,U,0.0,3.0,,Subject3,0,Calming
817,6,1-Back,R,216.0,3.0,3.0,Subject3,1,Calming
818,6,1-Back,O,155.0,3.0,3.0,Subject3,1,Calming
819,6,1-Back,P,158.0,3.0,3.0,Subject3,1,Calming
820,6,1-Back,P,284.0,4.0,4.0,Subject3,1,Calming
821,6,1-Back,P,200.0,4.0,4.0,Subject3,1,Calming
822,6,1-Back,U,245.0,3.0,3.0,Subject3,1,Calming
823,6,1-Back,Z,195.0,3.0,3.0,Subject3,1,Calming
824,6,1-Back,U,457.0,3.0,3.0,Subject3,1,Calming
825,6,1-Back,M,712.0,3.0,3.0,Subject3,1,Calming
826,6,1-Back,M,287.0,4.0,4.0,Subject3,1,Calming
827,6,1-Back,W,130.0,3.0,3.0,Subject3,1,Calming
828,6,1-Back,I,311.0,3.0,3.0,Subject3,1,Calming
829,6,1-Back,F,510.0,3.0,3.0,Subject3,1,Calming
830,6,1-Back,M,562.0,3.0,3.0,Subject3,1,Calming
831,6,1-Back,A,157.0,3.0,3.0,Subject3,1,Calming
832,6,1-Back,G,285.0,3.0,3.0,Subject3,1,Calming
833,6,1-Back,G,654.0,4.0,3.0,Subject3,0,Calming
834,6,1-Back,R,768.0,3.0,3.0,Subject3,1,Calming
835,6,1-Back,Q,210.0,3.0,3.0,Subject3,1,Calming
836,6,1-Back,R,335.0,4.0,3.0,Subject3,0,Calming
837,6,1-Back,Q,358.0,3.0,4.0,Subject3,0,Calming
838,7,1-Back,S,0.0,3.0,,Subject3,0,Calming
839,7,1-Back,R,80.0,3.0,3.0,Subject3,1,Calming
840,7,1-Back,V,283.0,3.0,3.0,Subject3,1,Calming
841,7,1-Back,V,230.0,4.0,4.0,Subject3,1,Calming
842,7,1-Back,O,204.0,3.0,3.0,Subject3,1,Calming
843,7,1-Back,A,159.0,3.0,3.0,Subject3,1,Calming
844,7,1-Back,C,204.0,3.0,3.0,Subject3,1,Calming
845,7,1-Back,N,221.0,3.0,3.0,Subject3,1,Calming
846,7,1-Back,Y,47.0,3.0,3.0,Subject3,1,Calming
847,7,1-Back,V,326.0,3.0,3.0,Subject3,1,Calming
848,7,1-Back,V,3.0,4.0,4.0,Subject3,1,Calming
849,7,1-Back,J,688.0,3.0,3.0,Subject3,1,Calming
850,7,1-Back,U,221.0,3.0,3.0,Subject3,1,Calming
851,7,1-Back,U,71.0,4.0,4.0,Subject3,1,Calming
852,7,1-Back,U,0.0,4.0,,Subject3,0,Calming
853,7,1-Back,Y,50.0,3.0,3.0,Subject3,1,Calming
854,7,1-Back,Y,660.0,4.0,3.0,Subject3,0,Calming
855,7,1-Back,J,325.0,3.0,3.0,Subject3,1,Calming
856,7,1-Back,I,403.0,3.0,3.0,Subject3,1,Calming
857,7,1-Back,S,313.0,3.0,3.0,Subject3,1,Calming
858,7,1-Back,U,247.0,3.0,4.0,Subject3,0,Calming
859,7,1-Back,P,75.0,3.0,3.0,Subject3,1,Calming
860,8,3-Back,L,0.0,3.0,,Subject3,0,Calming
861,8,3-Back,A,0.0,3.0,,Subject3,0,Calming
862,8,3-Back,P,0.0,3.0,,Subject3,0,Calming
863,8,3-Back,L,0.0,4.0,,Subject3,0,Calming
864,8,3-Back,A,460.0,4.0,4.0,Subject3,1,Calming
865,8,3-Back,N,637.0,3.0,3.0,Subject3,1,Calming
866,8,3-Back,W,1036.0,3.0,3.0,Subject3,1,Calming
867,8,3-Back,C,769.0,3.0,3.0,Subject3,1,Calming
868,8,3-Back,L,497.0,3.0,4.0,Subject3,0,Calming
869,8,3-Back,W,716.0,4.0,4.0,Subject3,1,Calming
870,8,3-Back,U,457.0,3.0,3.0,Subject3,1,Calming
871,8,3-Back,S,686.0,3.0,3.0,Subject3,1,Calming
872,8,3-Back,W,403.0,4.0,4.0,Subject3,1,Calming
873,8,3-Back,Y,430.0,3.0,3.0,Subject3,1,Calming
874,8,3-Back,F,1003.0,3.0,3.0,Subject3,1,Calming
875,8,3-Back,L,433.0,3.0,4.0,Subject3,0,Calming
876,8,3-Back,Y,420.0,4.0,3.0,Subject3,0,Calming
877,8,3-Back,U,541.0,3.0,3.0,Subject3,1,Calming
878,8,3-Back,L,470.0,3.0,4.0,Subject3,0,Calming
879,8,3-Back,I,326.0,3.0,3.0,Subject3,1,Calming
880,8,3-Back,B,521.0,3.0,3.0,Subject3,1,Calming
881,8,3-Back,T,597.0,3.0,3.0,Subject3,1,Calming
882,9,Rest,nan,,,,Subject3,0,Calming
883,10,3-Back,E,0.0,3.0,,Subject3,0,Calming
884,10,3-Back,G,0.0,3.0,,Subject3,0,Calming
885,10,3-Back,S,0.0,3.0,,Subject3,0,Calming
886,10,3-Back,J,212.0,3.0,3.0,Subject3,1,Calming
887,10,3-Back,Z,493.0,3.0,3.0,Subject3,1,Calming
888,10,3-Back,Q,611.0,3.0,3.0,Subject3,1,Calming
889,10,3-Back,W,422.0,3.0,3.0,Subject3,1,Calming
890,10,3-Back,K,232.0,3.0,3.0,Subject3,1,Calming
891,10,3-Back,Q,587.0,3.0,3.0,Subject3,1,Calming
892,10,3-Back,S,360.0,3.0,4.0,Subject3,0,Calming
893,10,3-Back,M,458.0,3.0,3.0,Subject3,1,Calming
894,10,3-Back,Q,816.0,3.0,3.0,Subject3,1,Calming
895,10,3-Back,S,1067.0,4.0,3.0,Subject3,0,Calming
896,10,3-Back,F,824.0,4.0,3.0,Subject3,0,Calming
897,10,3-Back,Q,196.0,4.0,4.0,Subject3,1,Calming
898,10,3-Back,X,823.0,3.0,3.0,Subject3,1,Calming
899,10,3-Back,F,1068.0,4.0,4.0,Subject3,1,Calming
900,10,3-Back,K,817.0,3.0,3.0,Subject3,1,Calming
901,10,3-Back,X,1186.0,3.0,4.0,Subject3,0,Calming
902,10,3-Back,K,539.0,3.0,4.0,Subject3,0,Calming
903,10,3-Back,R,727.0,3.0,3.0,Subject3,1,Calming
904,10,3-Back,X,840.0,4.0,3.0,Subject3,0,Calming
905,11,1-Back,B,0.0,3.0,,Subject3,0,Calming
906,11,1-Back,B,2.0,4.0,4.0,Subject3,1,Calming
907,11,1-Back,V,166.0,3.0,3.0,Subject3,1,Calming
908,11,1-Back,P,285.0,3.0,3.0,Subject3,1,Calming
909,11,1-Back,P,57.0,4.0,4.0,Subject3,1,Calming
910,11,1-Back,Q,625.0,3.0,3.0,Subject3,1,Calming
911,11,1-Back,E,250.0,3.0,3.0,Subject3,1,Calming
912,11,1-Back,E,229.0,4.0,4.0,Subject3,1,Calming
913,11,1-Back,M,304.0,3.0,3.0,Subject3,1,Calming
914,11,1-Back,M,1034.0,4.0,3.0,Subject3,0,Calming
915,11,1-Back,M,238.0,4.0,4.0,Subject3,1,Calming
916,11,1-Back,T,806.0,3.0,4.0,Subject3,0,Calming
917,11,1-Back,E,643.0,3.0,3.0,Subject3,1,Calming
918,11,1-Back,R,526.0,3.0,3.0,Subject3,1,Calming
919,11,1-Back,X,556.0,3.0,3.0,Subject3,1,Calming
920,11,1-Back,E,423.0,3.0,3.0,Subject3,1,Calming
921,11,1-Back,L,232.0,3.0,3.0,Subject3,1,Calming
922,11,1-Back,B,174.0,3.0,3.0,Subject3,1,Calming
923,11,1-Back,R,328.0,3.0,3.0,Subject3,1,Calming
924,11,1-Back,W,314.0,3.0,3.0,Subject3,1,Calming
925,11,1-Back,W,213.0,4.0,4.0,Subject3,1,Calming
926,11,1-Back,I,62.0,3.0,3.0,Subject3,1,Calming
927,12,1-Back,I,0.0,3.0,,Subject3,0,Calming
928,12,1-Back,T,207.0,3.0,3.0,Subject3,1,Calming
929,12,1-Back,H,460.0,3.0,3.0,Subject3,1,Calming
930,12,1-Back,H,734.0,4.0,4.0,Subject3,1,Calming
931,12,1-Back,Y,203.0,3.0,3.0,Subject3,1,Calming
932,12,1-Back,G,232.0,3.0,3.0,Subject3,1,Calming
933,12,1-Back,G,331.0,4.0,4.0,Subject3,1,Calming
934,12,1-Back,G,116.0,4.0,4.0,Subject3,1,Calming
935,12,1-Back,Y,17.0,3.0,3.0,Subject3,1,Calming
936,12,1-Back,W,200.0,3.0,3.0,Subject3,1,Calming
937,12,1-Back,W,203.0,4.0,4.0,Subject3,1,Calming
938,12,1-Back,U,704.0,3.0,3.0,Subject3,1,Calming
939,12,1-Back,A,376.0,3.0,3.0,Subject3,1,Calming
940,12,1-Back,U,656.0,3.0,4.0,Subject3,0,Calming
941,12,1-Back,R,295.0,3.0,3.0,Subject3,1,Calming
942,12,1-Back,W,315.0,3.0,3.0,Subject3,1,Calming
943,12,1-Back,P,230.0,3.0,3.0,Subject3,1,Calming
944,12,1-Back,Q,186.0,3.0,3.0,Subject3,1,Calming
945,12,1-Back,C,122.0,3.0,3.0,Subject3,1,Calming
946,12,1-Back,A,378.0,3.0,3.0,Subject3,1,Calming
947,12,1-Back,A,48.0,4.0,4.0,Subject3,1,Calming
948,12,1-Back,L,135.0,3.0,3.0,Subject3,1,Calming
949,13,3-Back,A,0.0,3.0,,Subject3,0,Calming
950,13,3-Back,H,0.0,3.0,,Subject3,0,Calming
951,13,3-Back,U,0.0,3.0,,Subject3,0,Calming
952,13,3-Back,J,376.0,3.0,3.0,Subject3,1,Calming
953,13,3-Back,V,269.0,3.0,3.0,Subject3,1,Calming
954,13,3-Back,N,232.0,3.0,3.0,Subject3,1,Calming
955,13,3-Back,J,461.0,3.0,4.0,Subject3,0,Calming
956,13,3-Back,V,375.0,4.0,3.0,Subject3,0,Calming
957,13,3-Back,N,1002.0,4.0,3.0,Subject3,0,Calming
958,13,3-Back,U,506.0,3.0,4.0,Subject3,0,Calming
959,13,3-Back,V,787.0,4.0,3.0,Subject3,0,Calming
960,13,3-Back,E,808.0,3.0,3.0,Subject3,1,Calming
961,13,3-Back,D,927.0,3.0,3.0,Subject3,1,Calming
962,13,3-Back,X,853.0,3.0,3.0,Subject3,1,Calming
963,13,3-Back,Q,621.0,3.0,3.0,Subject3,1,Calming
964,13,3-Back,O,520.0,3.0,3.0,Subject3,1,Calming
965,13,3-Back,X,290.0,4.0,4.0,Subject3,1,Calming
966,13,3-Back,N,1222.0,3.0,4.0,Subject3,0,Calming
967,13,3-Back,O,616.0,4.0,4.0,Subject3,1,Calming
968,13,3-Back,P,294.0,3.0,3.0,Subject3,1,Calming
969,13,3-Back,T,555.0,3.0,3.0,Subject3,1,Calming
970,13,3-Back,W,421.0,3.0,3.0,Subject3,1,Calming
971,14,3-Back,X,0.0,3.0,,Subject3,0,Calming
972,14,3-Back,K,0.0,3.0,,Subject3,0,Calming
973,14,3-Back,O,0.0,3.0,,Subject3,0,Calming
974,14,3-Back,X,451.0,4.0,4.0,Subject3,1,Calming
975,14,3-Back,K,438.0,4.0,4.0,Subject3,1,Calming
976,14,3-Back,J,451.0,3.0,3.0,Subject3,1,Calming
977,14,3-Back,M,336.0,3.0,3.0,Subject3,1,Calming
978,14,3-Back,G,1014.0,3.0,3.0,Subject3,1,Calming
979,14,3-Back,Y,610.0,3.0,3.0,Subject3,1,Calming
980,14,3-Back,M,358.0,3.0,4.0,Subject3,0,Calming
981,14,3-Back,K,673.0,3.0,3.0,Subject3,1,Calming
982,14,3-Back,E,541.0,3.0,3.0,Subject3,1,Calming
983,14,3-Back,S,579.0,3.0,3.0,Subject3,1,Calming
984,14,3-Back,K,277.0,4.0,4.0,Subject3,1,Calming
985,14,3-Back,E,735.0,4.0,4.0,Subject3,1,Calming
986,14,3-Back,F,260.0,3.0,3.0,Subject3,1,Calming
987,14,3-Back,P,367.0,3.0,3.0,Subject3,1,Calming
988,14,3-Back,J,1041.0,3.0,3.0,Subject3,1,Calming
989,14,3-Back,F,1177.0,4.0,3.0,Subject3,0,Calming
990,14,3-Back,N,1231.0,3.0,3.0,Subject3,1,Calming
991,14,3-Back,L,907.0,3.0,3.0,Subject3,1,Calming
992,14,3-Back,T,823.0,3.0,3.0,Subject3,1,Calming
993,15,1-Back,V,0.0,3.0,,Subject3,0,Calming
994,15,1-Back,J,314.0,3.0,3.0,Subject3,1,Calming
995,15,1-Back,U,299.0,3.0,3.0,Subject3,1,Calming
996,15,1-Back,J,609.0,3.0,3.0,Subject3,1,Calming
997,15,1-Back,J,425.0,4.0,3.0,Subject3,0,Calming
998,15,1-Back,J,367.0,4.0,4.0,Subject3,1,Calming
999,15,1-Back,K,481.0,3.0,3.0,Subject3,1,Calming
1000,15,1-Back,K,369.0,3.0,4.0,Subject3,0,Calming
1001,15,1-Back,F,628.0,3.0,3.0,Subject3,1,Calming
1002,15,1-Back,F,254.0,4.0,4.0,Subject3,1,Calming
1003,15,1-Back,M,859.0,3.0,3.0,Subject3,1,Calming
1004,15,1-Back,B,388.0,3.0,3.0,Subject3,1,Calming
1005,15,1-Back,O,836.0,3.0,3.0,Subject3,1,Calming
1006,15,1-Back,B,581.0,3.0,4.0,Subject3,0,Calming
1007,15,1-Back,W,795.0,3.0,3.0,Subject3,1,Calming
1008,15,1-Back,Z,341.0,3.0,3.0,Subject3,1,Calming
1009,15,1-Back,Z,324.0,4.0,4.0,Subject3,1,Calming
1010,15,1-Back,Y,248.0,3.0,3.0,Subject3,1,Calming
1011,15,1-Back,Z,372.0,3.0,4.0,Subject3,0,Calming
1012,15,1-Back,E,465.0,3.0,3.0,Subject3,1,Calming
1013,15,1-Back,A,315.0,3.0,3.0,Subject3,1,Calming
1014,15,1-Back,A,143.0,4.0,4.0,Subject3,1,Calming
1015,16,3-Back,J,0.0,3.0,,Subject3,0,Calming
1016,16,3-Back,O,0.0,3.0,,Subject3,0,Calming
1017,16,3-Back,X,0.0,3.0,,Subject3,0,Calming
1018,16,3-Back,V,605.0,3.0,3.0,Subject3,1,Calming
1019,16,3-Back,X,430.0,3.0,4.0,Subject3,0,Calming
1020,16,3-Back,Y,429.0,3.0,3.0,Subject3,1,Calming
1021,16,3-Back,G,676.0,3.0,3.0,Subject3,1,Calming
1022,16,3-Back,A,299.0,3.0,3.0,Subject3,1,Calming
1023,16,3-Back,C,294.0,3.0,3.0,Subject3,1,Calming
1024,16,3-Back,G,136.0,4.0,4.0,Subject3,1,Calming
1025,16,3-Back,O,399.0,4.0,3.0,Subject3,0,Calming
1026,16,3-Back,L,478.0,3.0,3.0,Subject3,1,Calming
1027,16,3-Back,H,547.0,3.0,3.0,Subject3,1,Calming
1028,16,3-Back,O,211.0,4.0,4.0,Subject3,1,Calming
1029,16,3-Back,Y,245.0,3.0,3.0,Subject3,1,Calming
1030,16,3-Back,H,977.0,4.0,4.0,Subject3,1,Calming
1031,16,3-Back,I,391.0,3.0,3.0,Subject3,1,Calming
1032,16,3-Back,N,518.0,3.0,3.0,Subject3,1,Calming
1033,16,3-Back,I,91.0,3.0,4.0,Subject3,0,Calming
1034,16,3-Back,D,454.0,3.0,3.0,Subject3,1,Calming
1035,16,3-Back,N,516.0,4.0,3.0,Subject3,0,Calming
1036,16,3-Back,W,1017.0,3.0,3.0,Subject3,1,Calming
1037,17,1-Back,I,0.0,3.0,,Subject3,0,Calming
1038,17,1-Back,T,279.0,3.0,3.0,Subject3,1,Calming
1039,17,1-Back,H,277.0,3.0,3.0,Subject3,1,Calming
1040,17,1-Back,H,1014.0,4.0,3.0,Subject3,0,Calming
1041,17,1-Back,Y,828.0,3.0,3.0,Subject3,1,Calming
1042,17,1-Back,G,329.0,3.0,3.0,Subject3,1,Calming
1043,17,1-Back,G,208.0,4.0,4.0,Subject3,1,Calming
1044,17,1-Back,G,85.0,4.0,4.0,Subject3,1,Calming
1045,17,1-Back,Y,55.0,3.0,3.0,Subject3,1,Calming
1046,17,1-Back,W,611.0,3.0,3.0,Subject3,1,Calming
1047,17,1-Back,W,195.0,4.0,4.0,Subject3,1,Calming
1048,17,1-Back,U,361.0,3.0,3.0,Subject3,1,Calming
1049,17,1-Back,A,266.0,3.0,3.0,Subject3,1,Calming
1050,17,1-Back,U,564.0,3.0,3.0,Subject3,1,Calming
1051,17,1-Back,R,315.0,3.0,3.0,Subject3,1,Calming
1052,17,1-Back,W,367.0,3.0,3.0,Subject3,1,Calming
1053,17,1-Back,P,110.0,3.0,3.0,Subject3,1,Calming
1054,17,1-Back,Q,141.0,3.0,3.0,Subject3,1,Calming
1055,17,1-Back,C,285.0,3.0,3.0,Subject3,1,Calming
1056,17,1-Back,A,23.0,3.0,3.0,Subject3,1,Calming
1057,17,1-Back,A,239.0,4.0,3.0,Subject3,0,Calming
1058,17,1-Back,L,26.0,3.0,3.0,Subject3,1,Calming
1059,1,1-Back,L,0.0,3.0,,Subject3,0,Vexing
1060,1,1-Back,Q,108.0,3.0,3.0,Subject3,1,Vexing
1061,1,1-Back,U,95.0,3.0,3.0,Subject3,1,Vexing
1062,1,1-Back,O,152.0,3.0,3.0,Subject3,1,Vexing
1063,1,1-Back,U,475.0,3.0,3.0,Subject3,1,Vexing
1064,1,1-Back,U,69.0,4.0,4.0,Subject3,1,Vexing
1065,1,1-Back,H,182.0,3.0,3.0,Subject3,1,Vexing
1066,1,1-Back,V,219.0,3.0,3.0,Subject3,1,Vexing
1067,1,1-Back,K,270.0,3.0,3.0,Subject3,1,Vexing
1068,1,1-Back,K,177.0,4.0,4.0,Subject3,1,Vexing
1069,1,1-Back,K,193.0,4.0,4.0,Subject3,1,Vexing
1070,1,1-Back,B,246.0,3.0,3.0,Subject3,1,Vexing
1071,1,1-Back,R,476.0,3.0,3.0,Subject3,1,Vexing
1072,1,1-Back,F,772.0,4.0,3.0,Subject3,0,Vexing
1073,1,1-Back,F,242.0,4.0,4.0,Subject3,1,Vexing
1074,1,1-Back,C,664.0,3.0,3.0,Subject3,1,Vexing
1075,1,1-Back,G,466.0,3.0,3.0,Subject3,1,Vexing
1076,1,1-Back,X,161.0,3.0,3.0,Subject3,1,Vexing
1077,1,1-Back,F,441.0,3.0,3.0,Subject3,1,Vexing
1078,1,1-Back,M,229.0,3.0,3.0,Subject3,1,Vexing
1079,1,1-Back,X,286.0,3.0,3.0,Subject3,1,Vexing
1080,1,1-Back,F,506.0,3.0,3.0,Subject3,1,Vexing
1081,2,3-Back,Z,0.0,3.0,,Subject3,0,Vexing
1082,2,3-Back,U,0.0,3.0,,Subject3,0,Vexing
1083,2,3-Back,F,0.0,3.0,,Subject3,0,Vexing
1084,2,3-Back,Z,596.0,3.0,3.0,Subject3,1,Vexing
1085,2,3-Back,B,655.0,3.0,4.0,Subject3,0,Vexing
1086,2,3-Back,L,599.0,3.0,3.0,Subject3,1,Vexing
1087,2,3-Back,K,244.0,3.0,3.0,Subject3,1,Vexing
1088,2,3-Back,C,459.0,3.0,3.0,Subject3,1,Vexing
1089,2,3-Back,L,484.0,3.0,4.0,Subject3,0,Vexing
1090,2,3-Back,J,596.0,3.0,3.0,Subject3,1,Vexing
1091,2,3-Back,G,1031.0,3.0,3.0,Subject3,1,Vexing
1092,2,3-Back,F,1236.0,3.0,3.0,Subject3,1,Vexing
1093,2,3-Back,J,506.0,4.0,4.0,Subject3,1,Vexing
1094,2,3-Back,G,544.0,4.0,4.0,Subject3,1,Vexing
1095,2,3-Back,H,620.0,3.0,3.0,Subject3,1,Vexing
1096,2,3-Back,E,775.0,3.0,3.0,Subject3,1,Vexing
1097,2,3-Back,W,822.0,3.0,3.0,Subject3,1,Vexing
1098,2,3-Back,N,907.0,3.0,3.0,Subject3,1,Vexing
1099,2,3-Back,X,1012.0,3.0,3.0,Subject3,1,Vexing
1100,2,3-Back,W,512.0,4.0,4.0,Subject3,1,Vexing
1101,2,3-Back,N,1484.0,4.0,3.0,Subject3,0,Vexing
1102,2,3-Back,X,493.0,4.0,4.0,Subject3,1,Vexing
1103,3,1-Back,Y,0.0,3.0,,Subject3,0,Vexing
1104,3,1-Back,E,163.0,3.0,3.0,Subject3,1,Vexing
1105,3,1-Back,A,214.0,3.0,3.0,Subject3,1,Vexing
1106,3,1-Back,A,937.0,4.0,3.0,Subject3,0,Vexing
1107,3,1-Back,V,691.0,4.0,3.0,Subject3,0,Vexing
1108,3,1-Back,X,605.0,4.0,3.0,Subject3,0,Vexing
1109,3,1-Back,X,276.0,4.0,4.0,Subject3,1,Vexing
1110,3,1-Back,S,346.0,3.0,3.0,Subject3,1,Vexing
1111,3,1-Back,G,561.0,3.0,3.0,Subject3,1,Vexing
1112,3,1-Back,P,335.0,3.0,3.0,Subject3,1,Vexing
1113,3,1-Back,Y,363.0,3.0,3.0,Subject3,1,Vexing
1114,3,1-Back,X,461.0,3.0,3.0,Subject3,1,Vexing
1115,3,1-Back,P,382.0,3.0,3.0,Subject3,1,Vexing
1116,3,1-Back,U,779.0,3.0,3.0,Subject3,1,Vexing
1117,3,1-Back,V,357.0,3.0,3.0,Subject3,1,Vexing
1118,3,1-Back,A,0.0,3.0,,Subject3,0,Vexing
1119,3,1-Back,A,548.0,4.0,4.0,Subject3,1,Vexing
1120,3,1-Back,G,393.0,3.0,3.0,Subject3,1,Vexing
1121,3,1-Back,L,1156.0,3.0,3.0,Subject3,1,Vexing
1122,3,1-Back,W,632.0,3.0,3.0,Subject3,1,Vexing
1123,3,1-Back,B,284.0,3.0,3.0,Subject3,1,Vexing
1124,3,1-Back,I,172.0,3.0,3.0,Subject3,1,Vexing
1125,4,3-Back,F,0.0,3.0,,Subject3,0,Vexing
1126,4,3-Back,O,0.0,3.0,,Subject3,0,Vexing
1127,4,3-Back,H,0.0,3.0,,Subject3,0,Vexing
1128,4,3-Back,W,543.0,3.0,3.0,Subject3,1,Vexing
1129,4,3-Back,O,1394.0,4.0,4.0,Subject3,1,Vexing
1130,4,3-Back,M,438.0,3.0,3.0,Subject3,1,Vexing
1131,4,3-Back,L,491.0,3.0,3.0,Subject3,1,Vexing
1132,4,3-Back,L,602.0,3.0,3.0,Subject3,1,Vexing
1133,4,3-Back,R,838.0,3.0,3.0,Subject3,1,Vexing
1134,4,3-Back,E,616.0,3.0,3.0,Subject3,1,Vexing
1135,4,3-Back,L,350.0,4.0,4.0,Subject3,1,Vexing
1136,4,3-Back,N,205.0,3.0,3.0,Subject3,1,Vexing
1137,4,3-Back,J,339.0,3.0,3.0,Subject3,1,Vexing
1138,4,3-Back,M,662.0,3.0,3.0,Subject3,1,Vexing
1139,4,3-Back,Y,644.0,3.0,3.0,Subject3,1,Vexing
1140,4,3-Back,U,591.0,3.0,3.0,Subject3,1,Vexing
1141,4,3-Back,S,654.0,3.0,3.0,Subject3,1,Vexing
1142,4,3-Back,Y,420.0,4.0,4.0,Subject3,1,Vexing
1143,4,3-Back,M,629.0,3.0,3.0,Subject3,1,Vexing
1144,4,3-Back,S,1262.0,4.0,3.0,Subject3,0,Vexing
1145,4,3-Back,Y,441.0,4.0,4.0,Subject3,1,Vexing
1146,4,3-Back,N,235.0,3.0,3.0,Subject3,1,Vexing
1147,5,1-Back,A,0.0,3.0,,Subject3,0,Vexing
1148,5,1-Back,A,164.0,4.0,4.0,Subject3,1,Vexing
1149,5,1-Back,D,62.0,3.0,3.0,Subject3,1,Vexing
1150,5,1-Back,M,633.0,3.0,3.0,Subject3,1,Vexing
1151,5,1-Back,X,277.0,3.0,3.0,Subject3,1,Vexing
1152,5,1-Back,H,168.0,3.0,3.0,Subject3,1,Vexing
1153,5,1-Back,U,201.0,3.0,3.0,Subject3,1,Vexing
1154,5,1-Back,G,84.0,3.0,3.0,Subject3,1,Vexing
1155,5,1-Back,G,519.0,4.0,4.0,Subject3,1,Vexing
1156,5,1-Back,G,231.0,4.0,4.0,Subject3,1,Vexing
1157,5,1-Back,C,46.0,3.0,3.0,Subject3,1,Vexing
1158,5,1-Back,W,160.0,3.0,3.0,Subject3,1,Vexing
1159,5,1-Back,Y,401.0,3.0,3.0,Subject3,1,Vexing
1160,5,1-Back,Y,408.0,4.0,4.0,Subject3,1,Vexing
1161,5,1-Back,N,485.0,3.0,3.0,Subject3,1,Vexing
1162,5,1-Back,N,451.0,4.0,3.0,Subject3,0,Vexing
1163,5,1-Back,X,847.0,3.0,3.0,Subject3,1,Vexing
1164,5,1-Back,M,488.0,3.0,3.0,Subject3,1,Vexing
1165,5,1-Back,X,695.0,3.0,3.0,Subject3,1,Vexing
1166,5,1-Back,A,840.0,3.0,4.0,Subject3,0,Vexing
1167,5,1-Back,D,600.0,3.0,3.0,Subject3,1,Vexing
1168,5,1-Back,T,0.0,3.0,,Subject3,0,Vexing
1169,6,3-Back,V,0.0,3.0,,Subject3,0,Vexing
1170,6,3-Back,D,0.0,3.0,,Subject3,0,Vexing
1171,6,3-Back,K,0.0,3.0,,Subject3,0,Vexing
1172,6,3-Back,D,689.0,3.0,3.0,Subject3,1,Vexing
1173,6,3-Back,Z,914.0,3.0,3.0,Subject3,1,Vexing
1174,6,3-Back,J,610.0,3.0,3.0,Subject3,1,Vexing
1175,6,3-Back,G,625.0,3.0,3.0,Subject3,1,Vexing
1176,6,3-Back,Z,344.0,4.0,4.0,Subject3,1,Vexing
1177,6,3-Back,J,588.0,4.0,4.0,Subject3,1,Vexing
1178,6,3-Back,Q,348.0,3.0,3.0,Subject3,1,Vexing
1179,6,3-Back,B,551.0,3.0,3.0,Subject3,1,Vexing
1180,6,3-Back,Z,385.0,3.0,4.0,Subject3,0,Vexing
1181,6,3-Back,Q,760.0,4.0,3.0,Subject3,0,Vexing
1182,6,3-Back,B,318.0,4.0,4.0,Subject3,1,Vexing
1183,6,3-Back,B,505.0,3.0,3.0,Subject3,1,Vexing
1184,6,3-Back,E,624.0,3.0,3.0,Subject3,1,Vexing
1185,6,3-Back,G,514.0,3.0,3.0,Subject3,1,Vexing
1186,6,3-Back,B,276.0,4.0,4.0,Subject3,1,Vexing
1187,6,3-Back,X,138.0,3.0,3.0,Subject3,1,Vexing
1188,6,3-Back,U,750.0,3.0,3.0,Subject3,1,Vexing
1189,6,3-Back,J,335.0,3.0,3.0,Subject3,1,Vexing
1190,6,3-Back,V,449.0,3.0,3.0,Subject3,1,Vexing
1191,7,1-Back,A,0.0,3.0,,Subject3,0,Vexing
1192,7,1-Back,W,325.0,3.0,3.0,Subject3,1,Vexing
1193,7,1-Back,X,190.0,3.0,3.0,Subject3,1,Vexing
1194,7,1-Back,M,468.0,3.0,3.0,Subject3,1,Vexing
1195,7,1-Back,F,406.0,3.0,3.0,Subject3,1,Vexing
1196,7,1-Back,S,76.0,3.0,3.0,Subject3,1,Vexing
1197,7,1-Back,E,205.0,3.0,3.0,Subject3,1,Vexing
1198,7,1-Back,E,522.0,4.0,3.0,Subject3,0,Vexing
1199,7,1-Back,U,252.0,3.0,3.0,Subject3,1,Vexing
1200,7,1-Back,Y,251.0,3.0,3.0,Subject3,1,Vexing
1201,7,1-Back,Y,261.0,4.0,4.0,Subject3,1,Vexing
1202,7,1-Back,Y,278.0,4.0,4.0,Subject3,1,Vexing
1203,7,1-Back,V,95.0,3.0,3.0,Subject3,1,Vexing
1204,7,1-Back,A,104.0,3.0,3.0,Subject3,1,Vexing
1205,7,1-Back,A,144.0,4.0,4.0,Subject3,1,Vexing
1206,7,1-Back,G,399.0,3.0,3.0,Subject3,1,Vexing
1207,7,1-Back,S,162.0,3.0,3.0,Subject3,1,Vexing
1208,7,1-Back,F,108.0,3.0,3.0,Subject3,1,Vexing
1209,7,1-Back,I,34.0,3.0,3.0,Subject3,1,Vexing
1210,7,1-Back,B,106.0,3.0,3.0,Subject3,1,Vexing
1211,7,1-Back,B,164.0,4.0,4.0,Subject3,1,Vexing
1212,7,1-Back,T,169.0,3.0,3.0,Subject3,1,Vexing
1213,8,3-Back,T,0.0,3.0,,Subject3,0,Vexing
1214,8,3-Back,R,0.0,3.0,,Subject3,0,Vexing
1215,8,3-Back,A,0.0,3.0,,Subject3,0,Vexing
1216,8,3-Back,M,42.0,3.0,3.0,Subject3,1,Vexing
1217,8,3-Back,Z,583.0,3.0,3.0,Subject3,1,Vexing
1218,8,3-Back,C,416.0,3.0,3.0,Subject3,1,Vexing
1219,8,3-Back,M,163.0,3.0,4.0,Subject3,0,Vexing
1220,8,3-Back,O,376.0,3.0,3.0,Subject3,1,Vexing
1221,8,3-Back,P,493.0,3.0,3.0,Subject3,1,Vexing
1222,8,3-Back,M,184.0,4.0,4.0,Subject3,1,Vexing
1223,8,3-Back,O,342.0,4.0,4.0,Subject3,1,Vexing
1224,8,3-Back,O,323.0,3.0,3.0,Subject3,1,Vexing
1225,8,3-Back,B,562.0,3.0,3.0,Subject3,1,Vexing
1226,8,3-Back,H,447.0,3.0,3.0,Subject3,1,Vexing
1227,8,3-Back,Z,357.0,4.0,3.0,Subject3,0,Vexing
1228,8,3-Back,Q,283.0,3.0,3.0,Subject3,1,Vexing
1229,8,3-Back,Y,332.0,3.0,3.0,Subject3,1,Vexing
1230,8,3-Back,Z,247.0,4.0,4.0,Subject3,1,Vexing
1231,8,3-Back,M,1419.0,3.0,3.0,Subject3,1,Vexing
1232,8,3-Back,R,448.0,3.0,3.0,Subject3,1,Vexing
1233,8,3-Back,P,194.0,3.0,3.0,Subject3,1,Vexing
1234,8,3-Back,M,275.0,4.0,4.0,Subject3,1,Vexing
1235,9,Rest,nan,,,,Subject3,0,Vexing
1236,10,1-Back,J,0.0,3.0,,Subject3,0,Vexing
1237,10,1-Back,J,330.0,4.0,4.0,Subject3,1,Vexing
1238,10,1-Back,N,476.0,3.0,3.0,Subject3,1,Vexing
1239,10,1-Back,S,198.0,3.0,3.0,Subject3,1,Vexing
1240,10,1-Back,N,405.0,3.0,3.0,Subject3,1,Vexing
1241,10,1-Back,N,157.0,4.0,4.0,Subject3,1,Vexing
1242,10,1-Back,R,145.0,3.0,3.0,Subject3,1,Vexing
1243,10,1-Back,R,84.0,4.0,4.0,Subject3,1,Vexing
1244,10,1-Back,I,263.0,3.0,3.0,Subject3,1,Vexing
1245,10,1-Back,V,251.0,3.0,3.0,Subject3,1,Vexing
1246,10,1-Back,R,656.0,3.0,3.0,Subject3,1,Vexing
1247,10,1-Back,P,257.0,3.0,3.0,Subject3,1,Vexing
1248,10,1-Back,A,287.0,3.0,3.0,Subject3,1,Vexing
1249,10,1-Back,C,174.0,3.0,3.0,Subject3,1,Vexing
1250,10,1-Back,V,269.0,4.0,3.0,Subject3,0,Vexing
1251,10,1-Back,V,174.0,4.0,4.0,Subject3,1,Vexing
1252,10,1-Back,I,10.0,3.0,3.0,Subject3,1,Vexing
1253,10,1-Back,L,94.0,3.0,3.0,Subject3,1,Vexing
1254,10,1-Back,U,365.0,3.0,3.0,Subject3,1,Vexing
1255,10,1-Back,D,105.0,3.0,3.0,Subject3,1,Vexing
1256,10,1-Back,P,119.0,3.0,3.0,Subject3,1,Vexing
1257,10,1-Back,Y,43.0,3.0,3.0,Subject3,1,Vexing
1258,11,3-Back,C,0.0,3.0,,Subject3,0,Vexing
1259,11,3-Back,B,0.0,3.0,,Subject3,0,Vexing
1260,11,3-Back,Q,0.0,3.0,,Subject3,0,Vexing
1261,11,3-Back,Z,325.0,3.0,3.0,Subject3,1,Vexing
1262,11,3-Back,J,225.0,3.0,3.0,Subject3,1,Vexing
1263,11,3-Back,Q,398.0,4.0,4.0,Subject3,1,Vexing
1264,11,3-Back,B,1091.0,3.0,3.0,Subject3,1,Vexing
1265,11,3-Back,F,673.0,3.0,3.0,Subject3,1,Vexing
1266,11,3-Back,B,834.0,3.0,4.0,Subject3,0,Vexing
1267,11,3-Back,M,237.0,3.0,3.0,Subject3,1,Vexing
1268,11,3-Back,D,483.0,3.0,3.0,Subject3,1,Vexing
1269,11,3-Back,Z,826.0,3.0,4.0,Subject3,0,Vexing
1270,11,3-Back,L,407.0,3.0,3.0,Subject3,1,Vexing
1271,11,3-Back,O,139.0,3.0,3.0,Subject3,1,Vexing
1272,11,3-Back,S,390.0,3.0,3.0,Subject3,1,Vexing
1273,11,3-Back,A,597.0,3.0,4.0,Subject3,0,Vexing
1274,11,3-Back,O,186.0,4.0,3.0,Subject3,0,Vexing
1275,11,3-Back,Y,643.0,3.0,3.0,Subject3,1,Vexing
1276,11,3-Back,A,307.0,4.0,4.0,Subject3,1,Vexing
1277,11,3-Back,U,213.0,3.0,3.0,Subject3,1,Vexing
1278,11,3-Back,Y,377.0,4.0,4.0,Subject3,1,Vexing
1279,11,3-Back,A,241.0,4.0,4.0,Subject3,1,Vexing
1280,12,3-Back,W,0.0,3.0,,Subject3,0,Vexing
1281,12,3-Back,Y,0.0,3.0,,Subject3,0,Vexing
1282,12,3-Back,E,0.0,3.0,,Subject3,0,Vexing
1283,12,3-Back,S,175.0,3.0,3.0,Subject3,1,Vexing
1284,12,3-Back,Y,290.0,4.0,4.0,Subject3,1,Vexing
1285,12,3-Back,E,530.0,4.0,4.0,Subject3,1,Vexing
1286,12,3-Back,G,310.0,3.0,3.0,Subject3,1,Vexing
1287,12,3-Back,Q,241.0,3.0,3.0,Subject3,1,Vexing
1288,12,3-Back,V,117.0,3.0,3.0,Subject3,1,Vexing
1289,12,3-Back,W,122.0,3.0,3.0,Subject3,1,Vexing
1290,12,3-Back,K,297.0,3.0,3.0,Subject3,1,Vexing
1291,12,3-Back,D,306.0,3.0,3.0,Subject3,1,Vexing
1292,12,3-Back,C,580.0,3.0,3.0,Subject3,1,Vexing
1293,12,3-Back,U,385.0,3.0,3.0,Subject3,1,Vexing
1294,12,3-Back,V,675.0,3.0,4.0,Subject3,0,Vexing
1295,12,3-Back,A,203.0,3.0,3.0,Subject3,1,Vexing
1296,12,3-Back,U,311.0,4.0,3.0,Subject3,0,Vexing
1297,12,3-Back,X,515.0,3.0,3.0,Subject3,1,Vexing
1298,12,3-Back,A,320.0,4.0,4.0,Subject3,1,Vexing
1299,12,3-Back,U,724.0,3.0,4.0,Subject3,0,Vexing
1300,12,3-Back,X,547.0,4.0,4.0,Subject3,1,Vexing
1301,12,3-Back,M,638.0,3.0,3.0,Subject3,1,Vexing
1302,13,1-Back,K,0.0,3.0,,Subject3,0,Vexing
1303,13,1-Back,B,230.0,3.0,3.0,Subject3,1,Vexing
1304,13,1-Back,U,447.0,3.0,3.0,Subject3,1,Vexing
1305,13,1-Back,Q,325.0,3.0,3.0,Subject3,1,Vexing
1306,13,1-Back,N,10.0,3.0,3.0,Subject3,1,Vexing
1307,13,1-Back,O,460.0,3.0,3.0,Subject3,1,Vexing
1308,13,1-Back,I,192.0,3.0,3.0,Subject3,1,Vexing
1309,13,1-Back,T,168.0,3.0,3.0,Subject3,1,Vexing
1310,13,1-Back,W,36.0,3.0,3.0,Subject3,1,Vexing
1311,13,1-Back,I,296.0,4.0,3.0,Subject3,0,Vexing
1312,13,1-Back,I,81.0,4.0,4.0,Subject3,1,Vexing
1313,13,1-Back,U,282.0,3.0,3.0,Subject3,1,Vexing
1314,13,1-Back,B,271.0,3.0,3.0,Subject3,1,Vexing
1315,13,1-Back,K,20.0,3.0,3.0,Subject3,1,Vexing
1316,13,1-Back,Z,105.0,3.0,3.0,Subject3,1,Vexing
1317,13,1-Back,I,236.0,3.0,3.0,Subject3,1,Vexing
1318,13,1-Back,I,203.0,4.0,4.0,Subject3,1,Vexing
1319,13,1-Back,W,129.0,3.0,3.0,Subject3,1,Vexing
1320,13,1-Back,W,84.0,4.0,4.0,Subject3,1,Vexing
1321,13,1-Back,N,36.0,3.0,3.0,Subject3,1,Vexing
1322,13,1-Back,N,112.0,4.0,4.0,Subject3,1,Vexing
1323,13,1-Back,T,332.0,3.0,3.0,Subject3,1,Vexing
1324,14,3-Back,O,0.0,3.0,,Subject3,0,Vexing
1325,14,3-Back,E,0.0,3.0,,Subject3,0,Vexing
1326,14,3-Back,X,0.0,3.0,,Subject3,0,Vexing
1327,14,3-Back,M,48.0,3.0,3.0,Subject3,1,Vexing
1328,14,3-Back,I,218.0,3.0,3.0,Subject3,1,Vexing
1329,14,3-Back,P,116.0,3.0,3.0,Subject3,1,Vexing
1330,14,3-Back,M,162.0,4.0,4.0,Subject3,1,Vexing
1331,14,3-Back,U,589.0,3.0,3.0,Subject3,1,Vexing
1332,14,3-Back,D,269.0,3.0,3.0,Subject3,1,Vexing
1333,14,3-Back,F,305.0,3.0,3.0,Subject3,1,Vexing
1334,14,3-Back,S,157.0,3.0,3.0,Subject3,1,Vexing
1335,14,3-Back,D,110.0,4.0,4.0,Subject3,1,Vexing
1336,14,3-Back,R,329.0,3.0,3.0,Subject3,1,Vexing
1337,14,3-Back,Q,114.0,3.0,3.0,Subject3,1,Vexing
1338,14,3-Back,F,298.0,3.0,4.0,Subject3,0,Vexing
1339,14,3-Back,A,262.0,3.0,3.0,Subject3,1,Vexing
1340,14,3-Back,X,607.0,3.0,3.0,Subject3,1,Vexing
1341,14,3-Back,F,284.0,3.0,4.0,Subject3,0,Vexing
1342,14,3-Back,A,654.0,4.0,4.0,Subject3,1,Vexing
1343,14,3-Back,X,340.0,4.0,4.0,Subject3,1,Vexing
1344,14,3-Back,Y,153.0,3.0,3.0,Subject3,1,Vexing
1345,14,3-Back,A,329.0,4.0,4.0,Subject3,1,Vexing
1346,15,1-Back,F,0.0,3.0,,Subject3,0,Vexing
1347,15,1-Back,F,7.0,4.0,4.0,Subject3,1,Vexing
1348,15,1-Back,F,0.0,4.0,,Subject3,0,Vexing
1349,15,1-Back,N,148.0,3.0,3.0,Subject3,1,Vexing
1350,15,1-Back,V,192.0,3.0,3.0,Subject3,1,Vexing
1351,15,1-Back,J,22.0,3.0,3.0,Subject3,1,Vexing
1352,15,1-Back,O,426.0,3.0,3.0,Subject3,1,Vexing
1353,15,1-Back,S,270.0,3.0,3.0,Subject3,1,Vexing
1354,15,1-Back,F,218.0,3.0,3.0,Subject3,1,Vexing
1355,15,1-Back,A,82.0,3.0,3.0,Subject3,1,Vexing
1356,15,1-Back,A,403.0,4.0,3.0,Subject3,0,Vexing
1357,15,1-Back,N,279.0,3.0,3.0,Subject3,1,Vexing
1358,15,1-Back,O,281.0,3.0,3.0,Subject3,1,Vexing
1359,15,1-Back,A,353.0,3.0,3.0,Subject3,1,Vexing
1360,15,1-Back,X,78.0,3.0,3.0,Subject3,1,Vexing
1361,15,1-Back,U,96.0,3.0,3.0,Subject3,1,Vexing
1362,15,1-Back,U,18.0,4.0,4.0,Subject3,1,Vexing
1363,15,1-Back,D,25.0,3.0,3.0,Subject3,1,Vexing
1364,15,1-Back,D,46.0,4.0,4.0,Subject3,1,Vexing
1365,15,1-Back,J,692.0,3.0,3.0,Subject3,1,Vexing
1366,15,1-Back,Q,225.0,3.0,3.0,Subject3,1,Vexing
1367,15,1-Back,Y,164.0,3.0,3.0,Subject3,1,Vexing
1368,16,3-Back,J,558.0,2.0,3.0,Subject3,0,Vexing
1369,16,3-Back,H,0.0,2.0,,Subject3,0,Vexing
1370,16,3-Back,G,0.0,2.0,,Subject3,0,Vexing
1371,16,3-Back,A,503.0,2.0,3.0,Subject3,0,Vexing
1372,16,3-Back,B,667.0,2.0,3.0,Subject3,0,Vexing
1373,16,3-Back,B,555.0,1.0,3.0,Subject3,0,Vexing
1374,16,3-Back,C,508.0,2.0,3.0,Subject3,0,Vexing
1375,16,3-Back,J,432.0,2.0,4.0,Subject3,0,Vexing
1376,16,3-Back,H,615.0,2.0,3.0,Subject3,0,Vexing
1377,16,3-Back,G,293.0,2.0,3.0,Subject3,0,Vexing
1378,16,3-Back,G,739.0,1.0,3.0,Subject3,0,Vexing
1379,16,3-Back,H,1436.0,2.0,3.0,Subject3,0,Vexing
1380,16,3-Back,J,1004.0,2.0,3.0,Subject3,0,Vexing
1381,16,3-Back,A,544.0,2.0,3.0,Subject3,0,Vexing
1382,16,3-Back,J,429.0,2.0,4.0,Subject3,0,Vexing
1383,16,3-Back,J,487.0,1.0,3.0,Subject3,0,Vexing
1384,16,3-Back,G,387.0,2.0,4.0,Subject3,0,Vexing
1385,16,3-Back,H,338.0,2.0,4.0,Subject3,0,Vexing
1386,16,3-Back,H,403.0,1.0,3.0,Subject3,0,Vexing
1387,16,3-Back,I,601.0,2.0,3.0,Subject3,0,Vexing
1388,16,3-Back,I,930.0,1.0,3.0,Subject3,0,Vexing
1389,16,3-Back,A,1461.0,2.0,3.0,Subject3,0,Vexing
1390,17,1-Back,B,0.0,3.0,,Subject3,0,Vexing
1391,17,1-Back,B,359.0,4.0,4.0,Subject3,1,Vexing
1392,17,1-Back,U,24.0,3.0,3.0,Subject3,1,Vexing
1393,17,1-Back,F,133.0,3.0,3.0,Subject3,1,Vexing
1394,17,1-Back,F,165.0,4.0,4.0,Subject3,1,Vexing
1395,17,1-Back,T,91.0,3.0,3.0,Subject3,1,Vexing
1396,17,1-Back,T,48.0,4.0,4.0,Subject3,1,Vexing
1397,17,1-Back,O,124.0,3.0,3.0,Subject3,1,Vexing
1398,17,1-Back,R,261.0,3.0,3.0,Subject3,1,Vexing
1399,17,1-Back,Q,204.0,3.0,3.0,Subject3,1,Vexing
1400,17,1-Back,X,7.0,3.0,3.0,Subject3,1,Vexing
1401,17,1-Back,X,690.0,4.0,4.0,Subject3,1,Vexing
1402,17,1-Back,R,369.0,3.0,3.0,Subject3,1,Vexing
1403,17,1-Back,S,275.0,3.0,3.0,Subject3,1,Vexing
1404,17,1-Back,S,565.0,4.0,4.0,Subject3,1,Vexing
1405,17,1-Back,L,612.0,3.0,3.0,Subject3,1,Vexing
1406,17,1-Back,Q,241.0,3.0,3.0,Subject3,1,Vexing
1407,17,1-Back,R,262.0,3.0,3.0,Subject3,1,Vexing
1408,17,1-Back,B,196.0,3.0,3.0,Subject3,1,Vexing
1409,17,1-Back,F,332.0,3.0,3.0,Subject3,1,Vexing
1410,17,1-Back,E,0.0,3.0,,Subject3,0,Vexing
1411,17,1-Back,Y,1199.0,3.0,3.0,Subject3,1,Vexing
1412,1,1-Back,L,0.0,3.0,,Subject4,0,Calming
1413,1,1-Back,A,838.0,3.0,3.0,Subject4,1,Calming
1414,1,1-Back,E,374.0,3.0,3.0,Subject4,1,Calming
1415,1,1-Back,E,405.0,4.0,4.0,Subject4,1,Calming
1416,1,1-Back,E,39.0,4.0,4.0,Subject4,1,Calming
1417,1,1-Back,O,190.0,3.0,3.0,Subject4,1,Calming
1418,1,1-Back,A,272.0,4.0,4.0,Subject4,1,Calming
1419,1,1-Back,A,486.0,4.0,3.0,Subject4,0,Calming
1420,1,1-Back,H,165.0,3.0,4.0,Subject4,0,Calming
1421,1,1-Back,J,310.0,3.0,3.0,Subject4,1,Calming
1422,1,1-Back,D,443.0,3.0,3.0,Subject4,1,Calming
1423,1,1-Back,B,184.0,3.0,3.0,Subject4,1,Calming
1424,1,1-Back,L,95.0,3.0,3.0,Subject4,1,Calming
1425,1,1-Back,V,86.0,3.0,3.0,Subject4,1,Calming
1426,1,1-Back,V,92.0,4.0,4.0,Subject4,1,Calming
1427,1,1-Back,N,42.0,3.0,3.0,Subject4,1,Calming
1428,1,1-Back,V,94.0,3.0,3.0,Subject4,1,Calming
1429,1,1-Back,L,378.0,3.0,3.0,Subject4,1,Calming
1430,1,1-Back,A,162.0,3.0,3.0,Subject4,1,Calming
1431,1,1-Back,E,444.0,3.0,3.0,Subject4,1,Calming
1432,1,1-Back,J,310.0,3.0,3.0,Subject4,1,Calming
1433,1,1-Back,S,442.0,3.0,3.0,Subject4,1,Calming
1434,2,3-Back,P,0.0,3.0,,Subject4,0,Calming
1435,2,3-Back,F,0.0,3.0,,Subject4,0,Calming
1436,2,3-Back,Q,0.0,3.0,,Subject4,0,Calming
1437,2,3-Back,C,225.0,3.0,3.0,Subject4,1,Calming
1438,2,3-Back,N,377.0,3.0,3.0,Subject4,1,Calming
1439,2,3-Back,P,1182.0,3.0,3.0,Subject4,1,Calming
1440,2,3-Back,C,1073.0,4.0,3.0,Subject4,0,Calming
1441,2,3-Back,N,414.0,3.0,4.0,Subject4,0,Calming
1442,2,3-Back,P,913.0,4.0,3.0,Subject4,0,Calming
1443,2,3-Back,C,677.0,4.0,4.0,Subject4,1,Calming
1444,2,3-Back,N,691.0,4.0,3.0,Subject4,0,Calming
1445,2,3-Back,V,565.0,3.0,3.0,Subject4,1,Calming
1446,2,3-Back,Q,762.0,3.0,3.0,Subject4,1,Calming
1447,2,3-Back,M,499.0,3.0,3.0,Subject4,1,Calming
1448,2,3-Back,H,271.0,3.0,3.0,Subject4,1,Calming
1449,2,3-Back,Q,969.0,4.0,4.0,Subject4,1,Calming
1450,2,3-Back,X,410.0,3.0,3.0,Subject4,1,Calming
1451,2,3-Back,N,957.0,3.0,4.0,Subject4,0,Calming
1452,2,3-Back,Z,266.0,3.0,3.0,Subject4,1,Calming
1453,2,3-Back,F,867.0,3.0,3.0,Subject4,1,Calming
1454,2,3-Back,C,523.0,3.0,4.0,Subject4,0,Calming
1455,2,3-Back,H,1167.0,3.0,4.0,Subject4,0,Calming
1456,3,3-Back,D,0.0,3.0,,Subject4,0,Calming
1457,3,3-Back,X,0.0,3.0,,Subject4,0,Calming
1458,3,3-Back,M,0.0,3.0,,Subject4,0,Calming
1459,3,3-Back,I,219.0,3.0,3.0,Subject4,1,Calming
1460,3,3-Back,X,14.0,3.0,4.0,Subject4,0,Calming
1461,3,3-Back,M,827.0,4.0,4.0,Subject4,1,Calming
1462,3,3-Back,P,295.0,3.0,3.0,Subject4,1,Calming
1463,3,3-Back,S,272.0,3.0,4.0,Subject4,0,Calming
1464,3,3-Back,A,291.0,3.0,3.0,Subject4,1,Calming
1465,3,3-Back,N,970.0,3.0,4.0,Subject4,0,Calming
1466,3,3-Back,W,290.0,3.0,3.0,Subject4,1,Calming
1467,3,3-Back,V,350.0,3.0,3.0,Subject4,1,Calming
1468,3,3-Back,A,281.0,3.0,4.0,Subject4,0,Calming
1469,3,3-Back,W,446.0,4.0,4.0,Subject4,1,Calming
1470,3,3-Back,B,177.0,3.0,3.0,Subject4,1,Calming
1471,3,3-Back,A,536.0,4.0,4.0,Subject4,1,Calming
1472,3,3-Back,Y,158.0,3.0,3.0,Subject4,1,Calming
1473,3,3-Back,B,353.0,4.0,4.0,Subject4,1,Calming
1474,3,3-Back,A,0.0,4.0,,Subject4,0,Calming
1475,3,3-Back,R,254.0,3.0,3.0,Subject4,1,Calming
1476,3,3-Back,P,176.0,3.0,3.0,Subject4,1,Calming
1477,3,3-Back,C,1078.0,3.0,3.0,Subject4,1,Calming
1478,4,1-Back,V,0.0,3.0,,Subject4,0,Calming
1479,4,1-Back,I,1484.0,3.0,3.0,Subject4,1,Calming
1480,4,1-Back,Q,342.0,3.0,3.0,Subject4,1,Calming
1481,4,1-Back,H,592.0,3.0,3.0,Subject4,1,Calming
1482,4,1-Back,C,305.0,3.0,3.0,Subject4,1,Calming
1483,4,1-Back,N,963.0,3.0,3.0,Subject4,1,Calming
1484,4,1-Back,V,389.0,3.0,3.0,Subject4,1,Calming
1485,4,1-Back,Y,293.0,3.0,3.0,Subject4,1,Calming
1486,4,1-Back,Y,426.0,4.0,3.0,Subject4,0,Calming
1487,4,1-Back,K,281.0,3.0,3.0,Subject4,1,Calming
1488,4,1-Back,K,58.0,4.0,4.0,Subject4,1,Calming
1489,4,1-Back,I,234.0,3.0,3.0,Subject4,1,Calming
1490,4,1-Back,I,372.0,4.0,4.0,Subject4,1,Calming
1491,4,1-Back,O,89.0,3.0,3.0,Subject4,1,Calming
1492,4,1-Back,E,434.0,3.0,3.0,Subject4,1,Calming
1493,4,1-Back,D,471.0,3.0,3.0,Subject4,1,Calming
1494,4,1-Back,V,101.0,3.0,3.0,Subject4,1,Calming
1495,4,1-Back,V,95.0,4.0,4.0,Subject4,1,Calming
1496,4,1-Back,N,98.0,3.0,3.0,Subject4,1,Calming
1497,4,1-Back,N,273.0,4.0,4.0,Subject4,1,Calming
1498,4,1-Back,D,124.0,3.0,3.0,Subject4,1,Calming
1499,4,1-Back,W,431.0,3.0,3.0,Subject4,1,Calming
1500,5,3-Back,C,0.0,3.0,,Subject4,0,Calming
1501,5,3-Back,B,0.0,3.0,,Subject4,0,Calming
1502,5,3-Back,Q,0.0,3.0,,Subject4,0,Calming
1503,5,3-Back,Y,754.0,3.0,4.0,Subject4,0,Calming
1504,5,3-Back,R,871.0,3.0,3.0,Subject4,1,Calming
1505,5,3-Back,I,379.0,3.0,3.0,Subject4,1,Calming
1506,5,3-Back,Y,919.0,4.0,4.0,Subject4,1,Calming
1507,5,3-Back,N,0.0,3.0,,Subject4,0,Calming
1508,5,3-Back,Y,193.0,3.0,4.0,Subject4,0,Calming
1509,5,3-Back,X,748.0,3.0,3.0,Subject4,1,Calming
1510,5,3-Back,F,1110.0,3.0,4.0,Subject4,0,Calming
1511,5,3-Back,U,486.0,3.0,4.0,Subject4,0,Calming
1512,5,3-Back,H,795.0,4.0,4.0,Subject4,1,Calming
1513,5,3-Back,U,710.0,3.0,3.0,Subject4,1,Calming
1514,5,3-Back,U,262.0,3.0,4.0,Subject4,0,Calming
1515,5,3-Back,H,345.0,4.0,3.0,Subject4,0,Calming
1516,5,3-Back,W,426.0,3.0,3.0,Subject4,1,Calming
1517,5,3-Back,U,270.0,4.0,4.0,Subject4,1,Calming
1518,5,3-Back,H,480.0,4.0,4.0,Subject4,1,Calming
1519,5,3-Back,F,359.0,3.0,4.0,Subject4,0,Calming
1520,5,3-Back,I,204.0,3.0,3.0,Subject4,1,Calming
1521,5,3-Back,V,824.0,3.0,4.0,Subject4,0,Calming
1522,6,1-Back,U,0.0,3.0,,Subject4,0,Calming
1523,6,1-Back,R,624.0,3.0,4.0,Subject4,0,Calming
1524,6,1-Back,O,388.0,3.0,4.0,Subject4,0,Calming
1525,6,1-Back,P,29.0,3.0,3.0,Subject4,1,Calming
1526,6,1-Back,P,633.0,4.0,4.0,Subject4,1,Calming
1527,6,1-Back,P,206.0,4.0,4.0,Subject4,1,Calming
1528,6,1-Back,U,304.0,3.0,3.0,Subject4,1,Calming
1529,6,1-Back,Z,0.0,3.0,,Subject4,0,Calming
1530,6,1-Back,U,482.0,3.0,3.0,Subject4,1,Calming
1531,6,1-Back,M,378.0,3.0,3.0,Subject4,1,Calming
1532,6,1-Back,M,476.0,4.0,4.0,Subject4,1,Calming
1533,6,1-Back,W,232.0,3.0,3.0,Subject4,1,Calming
1534,6,1-Back,I,241.0,3.0,3.0,Subject4,1,Calming
1535,6,1-Back,F,0.0,3.0,,Subject4,0,Calming
1536,6,1-Back,M,0.0,3.0,,Subject4,0,Calming
1537,6,1-Back,A,0.0,3.0,,Subject4,0,Calming
1538,6,1-Back,G,453.0,3.0,3.0,Subject4,1,Calming
1539,6,1-Back,G,81.0,4.0,4.0,Subject4,1,Calming
1540,6,1-Back,R,361.0,3.0,3.0,Subject4,1,Calming
1541,6,1-Back,Q,168.0,3.0,3.0,Subject4,1,Calming
1542,6,1-Back,R,470.0,4.0,3.0,Subject4,0,Calming
1543,6,1-Back,Q,0.0,3.0,,Subject4,0,Calming
1544,7,1-Back,S,0.0,3.0,,Subject4,0,Calming
1545,7,1-Back,R,753.0,3.0,3.0,Subject4,1,Calming
1546,7,1-Back,V,17.0,3.0,3.0,Subject4,1,Calming
1547,7,1-Back,V,465.0,4.0,4.0,Subject4,1,Calming
1548,7,1-Back,O,156.0,3.0,3.0,Subject4,1,Calming
1549,7,1-Back,A,200.0,3.0,3.0,Subject4,1,Calming
1550,7,1-Back,C,372.0,3.0,3.0,Subject4,1,Calming
1551,7,1-Back,N,465.0,3.0,3.0,Subject4,1,Calming
1552,7,1-Back,Y,448.0,3.0,3.0,Subject4,1,Calming
1553,7,1-Back,V,402.0,3.0,3.0,Subject4,1,Calming
1554,7,1-Back,V,161.0,4.0,4.0,Subject4,1,Calming
1555,7,1-Back,J,185.0,3.0,3.0,Subject4,1,Calming
1556,7,1-Back,U,33.0,3.0,3.0,Subject4,1,Calming
1557,7,1-Back,U,17.0,4.0,4.0,Subject4,1,Calming
1558,7,1-Back,U,31.0,4.0,4.0,Subject4,1,Calming
1559,7,1-Back,Y,465.0,3.0,3.0,Subject4,1,Calming
1560,7,1-Back,Y,452.0,4.0,4.0,Subject4,1,Calming
1561,7,1-Back,J,251.0,3.0,3.0,Subject4,1,Calming
1562,7,1-Back,I,154.0,3.0,3.0,Subject4,1,Calming
1563,7,1-Back,S,240.0,3.0,3.0,Subject4,1,Calming
1564,7,1-Back,U,447.0,3.0,3.0,Subject4,1,Calming
1565,7,1-Back,P,428.0,3.0,3.0,Subject4,1,Calming
1566,8,3-Back,L,0.0,3.0,,Subject4,0,Calming
1567,8,3-Back,A,0.0,3.0,,Subject4,0,Calming
1568,8,3-Back,P,0.0,3.0,,Subject4,0,Calming
1569,8,3-Back,L,303.0,4.0,4.0,Subject4,1,Calming
1570,8,3-Back,A,213.0,4.0,4.0,Subject4,1,Calming
1571,8,3-Back,N,151.0,3.0,3.0,Subject4,1,Calming
1572,8,3-Back,W,431.0,3.0,3.0,Subject4,1,Calming
1573,8,3-Back,C,211.0,3.0,3.0,Subject4,1,Calming
1574,8,3-Back,L,472.0,3.0,4.0,Subject4,0,Calming
1575,8,3-Back,W,955.0,4.0,4.0,Subject4,1,Calming
1576,8,3-Back,U,202.0,3.0,3.0,Subject4,1,Calming
1577,8,3-Back,S,432.0,3.0,3.0,Subject4,1,Calming
1578,8,3-Back,W,317.0,4.0,4.0,Subject4,1,Calming
1579,8,3-Back,Y,602.0,3.0,4.0,Subject4,0,Calming
1580,8,3-Back,F,295.0,3.0,3.0,Subject4,1,Calming
1581,8,3-Back,L,376.0,3.0,4.0,Subject4,0,Calming
1582,8,3-Back,Y,381.0,4.0,4.0,Subject4,1,Calming
1583,8,3-Back,U,353.0,3.0,3.0,Subject4,1,Calming
1584,8,3-Back,L,236.0,3.0,4.0,Subject4,0,Calming
1585,8,3-Back,I,345.0,3.0,3.0,Subject4,1,Calming
1586,8,3-Back,B,685.0,3.0,3.0,Subject4,1,Calming
1587,8,3-Back,T,364.0,3.0,3.0,Subject4,1,Calming
1588,9,Rest,nan,,,,Subject4,0,Calming
1589,10,3-Back,E,0.0,3.0,,Subject4,0,Calming
1590,10,3-Back,G,0.0,3.0,,Subject4,0,Calming
1591,10,3-Back,S,0.0,3.0,,Subject4,0,Calming
1592,10,3-Back,J,2.0,3.0,3.0,Subject4,1,Calming
1593,10,3-Back,Z,109.0,3.0,3.0,Subject4,1,Calming
1594,10,3-Back,Q,118.0,3.0,3.0,Subject4,1,Calming
1595,10,3-Back,W,165.0,3.0,3.0,Subject4,1,Calming
1596,10,3-Back,K,674.0,3.0,3.0,Subject4,1,Calming
1597,10,3-Back,Q,1200.0,3.0,4.0,Subject4,0,Calming
1598,10,3-Back,S,458.0,3.0,3.0,Subject4,1,Calming
1599,10,3-Back,M,389.0,3.0,3.0,Subject4,1,Calming
1600,10,3-Back,Q,1190.0,3.0,4.0,Subject4,0,Calming
1601,10,3-Back,S,1232.0,4.0,4.0,Subject4,1,Calming
1602,10,3-Back,F,984.0,4.0,3.0,Subject4,0,Calming
1603,10,3-Back,Q,342.0,4.0,4.0,Subject4,1,Calming
1604,10,3-Back,X,255.0,3.0,3.0,Subject4,1,Calming
1605,10,3-Back,F,702.0,4.0,4.0,Subject4,1,Calming
1606,10,3-Back,K,0.0,3.0,,Subject4,0,Calming
1607,10,3-Back,X,608.0,3.0,4.0,Subject4,0,Calming
1608,10,3-Back,K,372.0,3.0,3.0,Subject4,1,Calming
1609,10,3-Back,R,452.0,3.0,3.0,Subject4,1,Calming
1610,10,3-Back,X,557.0,4.0,4.0,Subject4,1,Calming
1611,11,1-Back,B,0.0,3.0,,Subject4,0,Calming
1612,11,1-Back,B,29.0,4.0,4.0,Subject4,1,Calming
1613,11,1-Back,V,34.0,3.0,3.0,Subject4,1,Calming
1614,11,1-Back,P,431.0,3.0,3.0,Subject4,1,Calming
1615,11,1-Back,P,471.0,4.0,4.0,Subject4,1,Calming
1616,11,1-Back,Q,367.0,3.0,3.0,Subject4,1,Calming
1617,11,1-Back,E,112.0,3.0,4.0,Subject4,0,Calming
1618,11,1-Back,E,408.0,4.0,4.0,Subject4,1,Calming
1619,11,1-Back,M,417.0,3.0,3.0,Subject4,1,Calming
1620,11,1-Back,M,438.0,4.0,4.0,Subject4,1,Calming
1621,11,1-Back,M,6.0,4.0,4.0,Subject4,1,Calming
1622,11,1-Back,T,242.0,3.0,3.0,Subject4,1,Calming
1623,11,1-Back,E,472.0,3.0,3.0,Subject4,1,Calming
1624,11,1-Back,R,453.0,3.0,3.0,Subject4,1,Calming
1625,11,1-Back,X,23.0,3.0,3.0,Subject4,1,Calming
1626,11,1-Back,E,110.0,3.0,3.0,Subject4,1,Calming
1627,11,1-Back,L,107.0,3.0,3.0,Subject4,1,Calming
1628,11,1-Back,B,134.0,3.0,3.0,Subject4,1,Calming
1629,11,1-Back,R,308.0,3.0,3.0,Subject4,1,Calming
1630,11,1-Back,W,425.0,3.0,3.0,Subject4,1,Calming
1631,11,1-Back,W,362.0,4.0,4.0,Subject4,1,Calming
1632,11,1-Back,I,304.0,3.0,3.0,Subject4,1,Calming
1633,12,1-Back,I,0.0,3.0,,Subject4,0,Calming
1634,12,1-Back,T,0.0,3.0,,Subject4,0,Calming
1635,12,1-Back,H,62.0,3.0,3.0,Subject4,1,Calming
1636,12,1-Back,H,459.0,4.0,4.0,Subject4,1,Calming
1637,12,1-Back,Y,37.0,3.0,3.0,Subject4,1,Calming
1638,12,1-Back,G,443.0,3.0,3.0,Subject4,1,Calming
1639,12,1-Back,G,76.0,4.0,4.0,Subject4,1,Calming
1640,12,1-Back,G,4.0,4.0,4.0,Subject4,1,Calming
1641,12,1-Back,Y,21.0,3.0,3.0,Subject4,1,Calming
1642,12,1-Back,W,57.0,3.0,3.0,Subject4,1,Calming
1643,12,1-Back,W,402.0,4.0,4.0,Subject4,1,Calming
1644,12,1-Back,U,191.0,3.0,3.0,Subject4,1,Calming
1645,12,1-Back,A,454.0,3.0,3.0,Subject4,1,Calming
1646,12,1-Back,U,404.0,3.0,3.0,Subject4,1,Calming
1647,12,1-Back,R,488.0,3.0,3.0,Subject4,1,Calming
1648,12,1-Back,W,372.0,3.0,3.0,Subject4,1,Calming
1649,12,1-Back,P,166.0,3.0,3.0,Subject4,1,Calming
1650,12,1-Back,Q,368.0,3.0,3.0,Subject4,1,Calming
1651,12,1-Back,C,471.0,3.0,3.0,Subject4,1,Calming
1652,12,1-Back,A,146.0,3.0,3.0,Subject4,1,Calming
1653,12,1-Back,A,444.0,4.0,4.0,Subject4,1,Calming
1654,12,1-Back,L,171.0,3.0,3.0,Subject4,1,Calming
1655,13,3-Back,A,0.0,3.0,,Subject4,0,Calming
1656,13,3-Back,H,0.0,3.0,,Subject4,0,Calming
1657,13,3-Back,U,0.0,3.0,,Subject4,0,Calming
1658,13,3-Back,J,265.0,3.0,3.0,Subject4,1,Calming
1659,13,3-Back,V,342.0,3.0,3.0,Subject4,1,Calming
1660,13,3-Back,N,209.0,3.0,3.0,Subject4,1,Calming
1661,13,3-Back,J,428.0,3.0,4.0,Subject4,0,Calming
1662,13,3-Back,V,486.0,4.0,4.0,Subject4,1,Calming
1663,13,3-Back,N,578.0,4.0,4.0,Subject4,1,Calming
1664,13,3-Back,U,567.0,3.0,3.0,Subject4,1,Calming
1665,13,3-Back,V,988.0,4.0,4.0,Subject4,1,Calming
1666,13,3-Back,E,615.0,3.0,4.0,Subject4,0,Calming
1667,13,3-Back,D,224.0,3.0,3.0,Subject4,1,Calming
1668,13,3-Back,X,330.0,3.0,3.0,Subject4,1,Calming
1669,13,3-Back,Q,294.0,3.0,4.0,Subject4,0,Calming
1670,13,3-Back,O,304.0,3.0,3.0,Subject4,1,Calming
1671,13,3-Back,X,797.0,4.0,4.0,Subject4,1,Calming
1672,13,3-Back,N,179.0,3.0,4.0,Subject4,0,Calming
1673,13,3-Back,O,549.0,4.0,3.0,Subject4,0,Calming
1674,13,3-Back,P,444.0,3.0,3.0,Subject4,1,Calming
1675,13,3-Back,T,291.0,3.0,3.0,Subject4,1,Calming
1676,13,3-Back,W,242.0,3.0,3.0,Subject4,1,Calming
1677,14,3-Back,X,0.0,3.0,,Subject4,0,Calming
1678,14,3-Back,K,0.0,3.0,,Subject4,0,Calming
1679,14,3-Back,O,0.0,3.0,,Subject4,0,Calming
1680,14,3-Back,X,457.0,4.0,4.0,Subject4,1,Calming
1681,14,3-Back,K,306.0,4.0,4.0,Subject4,1,Calming
1682,14,3-Back,J,311.0,3.0,3.0,Subject4,1,Calming
1683,14,3-Back,M,233.0,3.0,3.0,Subject4,1,Calming
1684,14,3-Back,G,249.0,3.0,3.0,Subject4,1,Calming
1685,14,3-Back,Y,86.0,3.0,3.0,Subject4,1,Calming
1686,14,3-Back,M,984.0,3.0,4.0,Subject4,0,Calming
1687,14,3-Back,K,708.0,3.0,4.0,Subject4,0,Calming
1688,14,3-Back,E,354.0,3.0,3.0,Subject4,1,Calming
1689,14,3-Back,S,65.0,3.0,3.0,Subject4,1,Calming
1690,14,3-Back,K,500.0,4.0,3.0,Subject4,0,Calming
1691,14,3-Back,E,0.0,4.0,,Subject4,0,Calming
1692,14,3-Back,F,454.0,3.0,4.0,Subject4,0,Calming
1693,14,3-Back,P,579.0,3.0,3.0,Subject4,1,Calming
1694,14,3-Back,J,373.0,3.0,3.0,Subject4,1,Calming
1695,14,3-Back,F,279.0,4.0,4.0,Subject4,1,Calming
1696,14,3-Back,N,5.0,3.0,3.0,Subject4,1,Calming
1697,14,3-Back,L,169.0,3.0,3.0,Subject4,1,Calming
1698,14,3-Back,T,376.0,3.0,3.0,Subject4,1,Calming
1699,15,1-Back,V,0.0,3.0,,Subject4,0,Calming
1700,15,1-Back,J,0.0,3.0,,Subject4,0,Calming
1701,15,1-Back,U,414.0,3.0,3.0,Subject4,1,Calming
1702,15,1-Back,J,748.0,3.0,3.0,Subject4,1,Calming
1703,15,1-Back,J,190.0,4.0,4.0,Subject4,1,Calming
1704,15,1-Back,J,202.0,4.0,4.0,Subject4,1,Calming
1705,15,1-Back,K,494.0,3.0,3.0,Subject4,1,Calming
1706,15,1-Back,K,34.0,3.0,4.0,Subject4,0,Calming
1707,15,1-Back,F,461.0,3.0,3.0,Subject4,1,Calming
1708,15,1-Back,F,380.0,4.0,4.0,Subject4,1,Calming
1709,15,1-Back,M,447.0,3.0,3.0,Subject4,1,Calming
1710,15,1-Back,B,0.0,3.0,,Subject4,0,Calming
1711,15,1-Back,O,420.0,3.0,3.0,Subject4,1,Calming
1712,15,1-Back,B,168.0,3.0,3.0,Subject4,1,Calming
1713,15,1-Back,W,494.0,3.0,3.0,Subject4,1,Calming
1714,15,1-Back,Z,318.0,3.0,3.0,Subject4,1,Calming
1715,15,1-Back,Z,198.0,4.0,3.0,Subject4,0,Calming
1716,15,1-Back,Y,307.0,3.0,3.0,Subject4,1,Calming
1717,15,1-Back,Z,622.0,3.0,3.0,Subject4,1,Calming
1718,15,1-Back,E,463.0,3.0,3.0,Subject4,1,Calming
1719,15,1-Back,A,366.0,3.0,3.0,Subject4,1,Calming
1720,15,1-Back,A,225.0,4.0,4.0,Subject4,1,Calming
1721,16,3-Back,J,0.0,3.0,,Subject4,0,Calming
1722,16,3-Back,O,0.0,3.0,,Subject4,0,Calming
1723,16,3-Back,X,0.0,3.0,,Subject4,0,Calming
1724,16,3-Back,V,110.0,3.0,3.0,Subject4,1,Calming
1725,16,3-Back,X,26.0,3.0,4.0,Subject4,0,Calming
1726,16,3-Back,Y,227.0,3.0,4.0,Subject4,0,Calming
1727,16,3-Back,G,369.0,3.0,3.0,Subject4,1,Calming
1728,16,3-Back,A,287.0,3.0,4.0,Subject4,0,Calming
1729,16,3-Back,C,697.0,3.0,3.0,Subject4,1,Calming
1730,16,3-Back,G,874.0,4.0,3.0,Subject4,0,Calming
1731,16,3-Back,O,1111.0,4.0,3.0,Subject4,0,Calming
1732,16,3-Back,L,539.0,3.0,3.0,Subject4,1,Calming
1733,16,3-Back,H,542.0,3.0,3.0,Subject4,1,Calming
1734,16,3-Back,O,458.0,4.0,3.0,Subject4,0,Calming
1735,16,3-Back,Y,1205.0,3.0,3.0,Subject4,1,Calming
1736,16,3-Back,H,562.0,4.0,3.0,Subject4,0,Calming
1737,16,3-Back,I,275.0,3.0,4.0,Subject4,0,Calming
1738,16,3-Back,N,279.0,3.0,3.0,Subject4,1,Calming
1739,16,3-Back,I,203.0,3.0,4.0,Subject4,0,Calming
1740,16,3-Back,D,408.0,3.0,4.0,Subject4,0,Calming
1741,16,3-Back,N,195.0,4.0,4.0,Subject4,1,Calming
1742,16,3-Back,W,370.0,3.0,3.0,Subject4,1,Calming
1743,17,1-Back,I,0.0,3.0,,Subject4,0,Calming
1744,17,1-Back,T,100.0,3.0,3.0,Subject4,1,Calming
1745,17,1-Back,H,0.0,3.0,,Subject4,0,Calming
1746,17,1-Back,H,36.0,4.0,4.0,Subject4,1,Calming
1747,17,1-Back,Y,403.0,3.0,3.0,Subject4,1,Calming
1748,17,1-Back,G,226.0,3.0,3.0,Subject4,1,Calming
1749,17,1-Back,G,401.0,4.0,4.0,Subject4,1,Calming
1750,17,1-Back,G,478.0,4.0,4.0,Subject4,1,Calming
1751,17,1-Back,Y,457.0,3.0,3.0,Subject4,1,Calming
1752,17,1-Back,W,428.0,3.0,3.0,Subject4,1,Calming
1753,17,1-Back,W,32.0,4.0,4.0,Subject4,1,Calming
1754,17,1-Back,U,23.0,3.0,3.0,Subject4,1,Calming
1755,17,1-Back,A,236.0,3.0,3.0,Subject4,1,Calming
1756,17,1-Back,U,404.0,3.0,3.0,Subject4,1,Calming
1757,17,1-Back,R,446.0,3.0,3.0,Subject4,1,Calming
1758,17,1-Back,W,475.0,3.0,3.0,Subject4,1,Calming
1759,17,1-Back,P,370.0,3.0,3.0,Subject4,1,Calming
1760,17,1-Back,Q,432.0,3.0,3.0,Subject4,1,Calming
1761,17,1-Back,C,414.0,3.0,3.0,Subject4,1,Calming
1762,17,1-Back,A,384.0,3.0,3.0,Subject4,1,Calming
1763,17,1-Back,A,377.0,4.0,4.0,Subject4,1,Calming
1764,17,1-Back,L,459.0,3.0,3.0,Subject4,1,Calming
1765,1,1-Back,L,0.0,3.0,,Subject4,0,Vexing
1766,1,1-Back,Q,750.0,3.0,3.0,Subject4,1,Vexing
1767,1,1-Back,U,431.0,3.0,3.0,Subject4,1,Vexing
1768,1,1-Back,O,416.0,3.0,3.0,Subject4,1,Vexing
1769,1,1-Back,U,356.0,3.0,3.0,Subject4,1,Vexing
1770,1,1-Back,U,447.0,4.0,4.0,Subject4,1,Vexing
1771,1,1-Back,H,471.0,3.0,3.0,Subject4,1,Vexing
1772,1,1-Back,V,356.0,3.0,3.0,Subject4,1,Vexing
1773,1,1-Back,K,69.0,3.0,3.0,Subject4,1,Vexing
1774,1,1-Back,K,491.0,4.0,4.0,Subject4,1,Vexing
1775,1,1-Back,K,460.0,4.0,4.0,Subject4,1,Vexing
1776,1,1-Back,B,30.0,3.0,3.0,Subject4,1,Vexing
1777,1,1-Back,R,447.0,3.0,3.0,Subject4,1,Vexing
1778,1,1-Back,F,314.0,4.0,3.0,Subject4,0,Vexing
1779,1,1-Back,F,387.0,4.0,4.0,Subject4,1,Vexing
1780,1,1-Back,C,97.0,3.0,3.0,Subject4,1,Vexing
1781,1,1-Back,G,430.0,3.0,3.0,Subject4,1,Vexing
1782,1,1-Back,X,105.0,3.0,3.0,Subject4,1,Vexing
1783,1,1-Back,F,253.0,3.0,3.0,Subject4,1,Vexing
1784,1,1-Back,M,381.0,3.0,3.0,Subject4,1,Vexing
1785,1,1-Back,X,72.0,3.0,3.0,Subject4,1,Vexing
1786,1,1-Back,F,404.0,3.0,3.0,Subject4,1,Vexing
1787,2,3-Back,Z,0.0,3.0,,Subject4,0,Vexing
1788,2,3-Back,U,0.0,3.0,,Subject4,0,Vexing
1789,2,3-Back,F,0.0,3.0,,Subject4,0,Vexing
1790,2,3-Back,Z,498.0,3.0,4.0,Subject4,0,Vexing
1791,2,3-Back,B,273.0,3.0,3.0,Subject4,1,Vexing
1792,2,3-Back,L,1225.0,3.0,3.0,Subject4,1,Vexing
1793,2,3-Back,K,393.0,3.0,3.0,Subject4,1,Vexing
1794,2,3-Back,C,167.0,3.0,3.0,Subject4,1,Vexing
1795,2,3-Back,L,423.0,3.0,4.0,Subject4,0,Vexing
1796,2,3-Back,J,444.0,3.0,3.0,Subject4,1,Vexing
1797,2,3-Back,G,22.0,3.0,3.0,Subject4,1,Vexing
1798,2,3-Back,F,277.0,3.0,3.0,Subject4,1,Vexing
1799,2,3-Back,J,397.0,4.0,3.0,Subject4,0,Vexing
1800,2,3-Back,G,199.0,4.0,4.0,Subject4,1,Vexing
1801,2,3-Back,H,799.0,3.0,4.0,Subject4,0,Vexing
1802,2,3-Back,E,264.0,3.0,3.0,Subject4,1,Vexing
1803,2,3-Back,W,1250.0,3.0,3.0,Subject4,1,Vexing
1804,2,3-Back,N,0.0,3.0,,Subject4,0,Vexing
1805,2,3-Back,X,277.0,3.0,4.0,Subject4,0,Vexing
1806,2,3-Back,W,202.0,4.0,3.0,Subject4,0,Vexing
1807,2,3-Back,N,473.0,4.0,4.0,Subject4,1,Vexing
1808,2,3-Back,X,343.0,4.0,4.0,Subject4,1,Vexing
1809,3,1-Back,Y,0.0,3.0,,Subject4,0,Vexing
1810,3,1-Back,E,161.0,3.0,3.0,Subject4,1,Vexing
1811,3,1-Back,A,143.0,3.0,3.0,Subject4,1,Vexing
1812,3,1-Back,A,387.0,4.0,4.0,Subject4,1,Vexing
1813,3,1-Back,V,39.0,4.0,3.0,Subject4,0,Vexing
1814,3,1-Back,X,394.0,4.0,3.0,Subject4,0,Vexing
1815,3,1-Back,X,370.0,4.0,4.0,Subject4,1,Vexing
1816,3,1-Back,S,0.0,3.0,,Subject4,0,Vexing
1817,3,1-Back,G,109.0,3.0,3.0,Subject4,1,Vexing
1818,3,1-Back,P,420.0,3.0,3.0,Subject4,1,Vexing
1819,3,1-Back,Y,379.0,3.0,3.0,Subject4,1,Vexing
1820,3,1-Back,X,4.0,3.0,3.0,Subject4,1,Vexing
1821,3,1-Back,P,430.0,3.0,3.0,Subject4,1,Vexing
1822,3,1-Back,U,380.0,3.0,3.0,Subject4,1,Vexing
1823,3,1-Back,V,458.0,3.0,3.0,Subject4,1,Vexing
1824,3,1-Back,A,378.0,3.0,3.0,Subject4,1,Vexing
1825,3,1-Back,A,498.0,4.0,4.0,Subject4,1,Vexing
1826,3,1-Back,G,377.0,3.0,3.0,Subject4,1,Vexing
1827,3,1-Back,L,471.0,3.0,3.0,Subject4,1,Vexing
1828,3,1-Back,W,666.0,3.0,3.0,Subject4,1,Vexing
1829,3,1-Back,B,26.0,3.0,3.0,Subject4,1,Vexing
1830,3,1-Back,I,87.0,3.0,3.0,Subject4,1,Vexing
1831,4,3-Back,F,0.0,3.0,,Subject4,0,Vexing
1832,4,3-Back,O,0.0,3.0,,Subject4,0,Vexing
1833,4,3-Back,H,0.0,3.0,,Subject4,0,Vexing
1834,4,3-Back,W,0.0,3.0,,Subject4,0,Vexing
1835,4,3-Back,O,30.0,4.0,4.0,Subject4,1,Vexing
1836,4,3-Back,M,157.0,3.0,3.0,Subject4,1,Vexing
1837,4,3-Back,L,340.0,3.0,4.0,Subject4,0,Vexing
1838,4,3-Back,L,502.0,3.0,3.0,Subject4,1,Vexing
1839,4,3-Back,R,171.0,3.0,3.0,Subject4,1,Vexing
1840,4,3-Back,E,90.0,3.0,3.0,Subject4,1,Vexing
1841,4,3-Back,L,429.0,4.0,4.0,Subject4,1,Vexing
1842,4,3-Back,N,357.0,3.0,3.0,Subject4,1,Vexing
1843,4,3-Back,J,201.0,3.0,3.0,Subject4,1,Vexing
1844,4,3-Back,M,132.0,3.0,4.0,Subject4,0,Vexing
1845,4,3-Back,Y,77.0,3.0,3.0,Subject4,1,Vexing
1846,4,3-Back,U,681.0,3.0,3.0,Subject4,1,Vexing
1847,4,3-Back,S,125.0,3.0,3.0,Subject4,1,Vexing
1848,4,3-Back,Y,202.0,4.0,4.0,Subject4,1,Vexing
1849,4,3-Back,M,83.0,3.0,3.0,Subject4,1,Vexing
1850,4,3-Back,S,228.0,4.0,4.0,Subject4,1,Vexing
1851,4,3-Back,Y,180.0,4.0,4.0,Subject4,1,Vexing
1852,4,3-Back,N,94.0,3.0,4.0,Subject4,0,Vexing
1853,5,1-Back,A,0.0,3.0,,Subject4,0,Vexing
1854,5,1-Back,A,445.0,4.0,4.0,Subject4,1,Vexing
1855,5,1-Back,D,394.0,3.0,3.0,Subject4,1,Vexing
1856,5,1-Back,M,305.0,3.0,3.0,Subject4,1,Vexing
1857,5,1-Back,X,440.0,3.0,3.0,Subject4,1,Vexing
1858,5,1-Back,H,359.0,3.0,3.0,Subject4,1,Vexing
1859,5,1-Back,U,0.0,3.0,,Subject4,0,Vexing
1860,5,1-Back,G,344.0,3.0,3.0,Subject4,1,Vexing
1861,5,1-Back,G,451.0,4.0,4.0,Subject4,1,Vexing
1862,5,1-Back,G,436.0,4.0,4.0,Subject4,1,Vexing
1863,5,1-Back,C,145.0,3.0,3.0,Subject4,1,Vexing
1864,5,1-Back,W,296.0,3.0,3.0,Subject4,1,Vexing
1865,5,1-Back,Y,348.0,3.0,3.0,Subject4,1,Vexing
1866,5,1-Back,Y,0.0,4.0,,Subject4,0,Vexing
1867,5,1-Back,N,146.0,3.0,3.0,Subject4,1,Vexing
1868,5,1-Back,N,411.0,4.0,3.0,Subject4,0,Vexing
1869,5,1-Back,X,68.0,3.0,3.0,Subject4,1,Vexing
1870,5,1-Back,M,387.0,3.0,3.0,Subject4,1,Vexing
1871,5,1-Back,X,462.0,3.0,3.0,Subject4,1,Vexing
1872,5,1-Back,A,364.0,3.0,3.0,Subject4,1,Vexing
1873,5,1-Back,D,333.0,3.0,3.0,Subject4,1,Vexing
1874,5,1-Back,T,0.0,3.0,,Subject4,0,Vexing
1875,6,3-Back,V,0.0,3.0,,Subject4,0,Vexing
1876,6,3-Back,D,0.0,3.0,,Subject4,0,Vexing
1877,6,3-Back,K,0.0,3.0,,Subject4,0,Vexing
1878,6,3-Back,D,172.0,3.0,3.0,Subject4,1,Vexing
1879,6,3-Back,Z,238.0,3.0,3.0,Subject4,1,Vexing
1880,6,3-Back,J,476.0,3.0,3.0,Subject4,1,Vexing
1881,6,3-Back,G,606.0,3.0,3.0,Subject4,1,Vexing
1882,6,3-Back,Z,231.0,4.0,4.0,Subject4,1,Vexing
1883,6,3-Back,J,215.0,4.0,4.0,Subject4,1,Vexing
1884,6,3-Back,Q,235.0,3.0,3.0,Subject4,1,Vexing
1885,6,3-Back,B,88.0,3.0,3.0,Subject4,1,Vexing
1886,6,3-Back,Z,290.0,3.0,4.0,Subject4,0,Vexing
1887,6,3-Back,Q,405.0,4.0,4.0,Subject4,1,Vexing
1888,6,3-Back,B,113.0,4.0,4.0,Subject4,1,Vexing
1889,6,3-Back,B,194.0,3.0,3.0,Subject4,1,Vexing
1890,6,3-Back,E,1327.0,3.0,4.0,Subject4,0,Vexing
1891,6,3-Back,G,0.0,3.0,,Subject4,0,Vexing
1892,6,3-Back,B,46.0,4.0,4.0,Subject4,1,Vexing
1893,6,3-Back,X,82.0,3.0,3.0,Subject4,1,Vexing
1894,6,3-Back,U,101.0,3.0,3.0,Subject4,1,Vexing
1895,6,3-Back,J,858.0,3.0,4.0,Subject4,0,Vexing
1896,6,3-Back,V,304.0,3.0,3.0,Subject4,1,Vexing
1897,7,1-Back,A,0.0,3.0,,Subject4,0,Vexing
1898,7,1-Back,W,165.0,3.0,3.0,Subject4,1,Vexing
1899,7,1-Back,X,438.0,3.0,3.0,Subject4,1,Vexing
1900,7,1-Back,M,0.0,3.0,,Subject4,0,Vexing
1901,7,1-Back,F,0.0,3.0,,Subject4,0,Vexing
1902,7,1-Back,S,364.0,3.0,3.0,Subject4,1,Vexing
1903,7,1-Back,E,462.0,3.0,3.0,Subject4,1,Vexing
1904,7,1-Back,E,367.0,4.0,4.0,Subject4,1,Vexing
1905,7,1-Back,U,240.0,3.0,3.0,Subject4,1,Vexing
1906,7,1-Back,Y,0.0,3.0,,Subject4,0,Vexing
1907,7,1-Back,Y,474.0,4.0,4.0,Subject4,1,Vexing
1908,7,1-Back,Y,23.0,4.0,4.0,Subject4,1,Vexing
1909,7,1-Back,V,249.0,3.0,3.0,Subject4,1,Vexing
1910,7,1-Back,A,454.0,3.0,3.0,Subject4,1,Vexing
1911,7,1-Back,A,0.0,4.0,,Subject4,0,Vexing
1912,7,1-Back,G,110.0,3.0,3.0,Subject4,1,Vexing
1913,7,1-Back,S,5.0,3.0,3.0,Subject4,1,Vexing
1914,7,1-Back,F,406.0,3.0,3.0,Subject4,1,Vexing
1915,7,1-Back,I,487.0,3.0,3.0,Subject4,1,Vexing
1916,7,1-Back,B,0.0,3.0,,Subject4,0,Vexing
1917,7,1-Back,B,431.0,4.0,4.0,Subject4,1,Vexing
1918,7,1-Back,T,256.0,3.0,3.0,Subject4,1,Vexing
1919,8,3-Back,T,0.0,3.0,,Subject4,0,Vexing
1920,8,3-Back,R,0.0,3.0,,Subject4,0,Vexing
1921,8,3-Back,A,0.0,3.0,,Subject4,0,Vexing
1922,8,3-Back,M,39.0,3.0,3.0,Subject4,1,Vexing
1923,8,3-Back,Z,418.0,3.0,3.0,Subject4,1,Vexing
1924,8,3-Back,C,333.0,3.0,3.0,Subject4,1,Vexing
1925,8,3-Back,M,508.0,3.0,4.0,Subject4,0,Vexing
1926,8,3-Back,O,169.0,3.0,3.0,Subject4,1,Vexing
1927,8,3-Back,P,626.0,3.0,3.0,Subject4,1,Vexing
1928,8,3-Back,M,209.0,4.0,4.0,Subject4,1,Vexing
1929,8,3-Back,O,138.0,4.0,4.0,Subject4,1,Vexing
1930,8,3-Back,O,265.0,3.0,3.0,Subject4,1,Vexing
1931,8,3-Back,B,121.0,3.0,3.0,Subject4,1,Vexing
1932,8,3-Back,H,727.0,3.0,3.0,Subject4,1,Vexing
1933,8,3-Back,Z,479.0,4.0,3.0,Subject4,0,Vexing
1934,8,3-Back,Q,235.0,3.0,3.0,Subject4,1,Vexing
1935,8,3-Back,Y,909.0,3.0,3.0,Subject4,1,Vexing
1936,8,3-Back,Z,425.0,4.0,4.0,Subject4,1,Vexing
1937,8,3-Back,M,497.0,3.0,3.0,Subject4,1,Vexing
1938,8,3-Back,R,439.0,3.0,3.0,Subject4,1,Vexing
1939,8,3-Back,P,0.0,3.0,,Subject4,0,Vexing
1940,8,3-Back,M,238.0,4.0,3.0,Subject4,0,Vexing
1941,9,Rest,nan,,,,Subject4,0,Vexing
1942,10,1-Back,J,0.0,3.0,,Subject4,0,Vexing
1943,10,1-Back,J,464.0,4.0,4.0,Subject4,1,Vexing
1944,10,1-Back,N,60.0,3.0,3.0,Subject4,1,Vexing
1945,10,1-Back,S,396.0,3.0,3.0,Subject4,1,Vexing
1946,10,1-Back,N,449.0,3.0,3.0,Subject4,1,Vexing
1947,10,1-Back,N,424.0,4.0,4.0,Subject4,1,Vexing
1948,10,1-Back,R,405.0,3.0,3.0,Subject4,1,Vexing
1949,10,1-Back,R,486.0,4.0,4.0,Subject4,1,Vexing
1950,10,1-Back,I,384.0,3.0,3.0,Subject4,1,Vexing
1951,10,1-Back,V,353.0,3.0,3.0,Subject4,1,Vexing
1952,10,1-Back,R,64.0,3.0,3.0,Subject4,1,Vexing
1953,10,1-Back,P,0.0,3.0,,Subject4,0,Vexing
1954,10,1-Back,A,385.0,3.0,3.0,Subject4,1,Vexing
1955,10,1-Back,C,395.0,3.0,3.0,Subject4,1,Vexing
1956,10,1-Back,V,346.0,4.0,3.0,Subject4,0,Vexing
1957,10,1-Back,V,483.0,4.0,4.0,Subject4,1,Vexing
1958,10,1-Back,I,0.0,3.0,,Subject4,0,Vexing
1959,10,1-Back,L,0.0,3.0,,Subject4,0,Vexing
1960,10,1-Back,U,480.0,3.0,3.0,Subject4,1,Vexing
1961,10,1-Back,D,28.0,3.0,3.0,Subject4,1,Vexing
1962,10,1-Back,P,386.0,3.0,3.0,Subject4,1,Vexing
1963,10,1-Back,Y,427.0,3.0,3.0,Subject4,1,Vexing
1964,11,3-Back,C,0.0,3.0,,Subject4,0,Vexing
1965,11,3-Back,B,0.0,3.0,,Subject4,0,Vexing
1966,11,3-Back,Q,0.0,3.0,,Subject4,0,Vexing
1967,11,3-Back,Z,457.0,3.0,3.0,Subject4,1,Vexing
1968,11,3-Back,J,0.0,3.0,,Subject4,0,Vexing
1969,11,3-Back,Q,350.0,4.0,4.0,Subject4,1,Vexing
1970,11,3-Back,B,128.0,3.0,3.0,Subject4,1,Vexing
1971,11,3-Back,F,110.0,3.0,3.0,Subject4,1,Vexing
1972,11,3-Back,B,1061.0,3.0,3.0,Subject4,1,Vexing
1973,11,3-Back,M,523.0,3.0,4.0,Subject4,0,Vexing
1974,11,3-Back,D,404.0,3.0,3.0,Subject4,1,Vexing
1975,11,3-Back,Z,48.0,3.0,3.0,Subject4,1,Vexing
1976,11,3-Back,L,392.0,3.0,3.0,Subject4,1,Vexing
1977,11,3-Back,O,918.0,3.0,4.0,Subject4,0,Vexing
1978,11,3-Back,S,290.0,3.0,3.0,Subject4,1,Vexing
1979,11,3-Back,A,752.0,3.0,3.0,Subject4,1,Vexing
1980,11,3-Back,O,126.0,4.0,4.0,Subject4,1,Vexing
1981,11,3-Back,Y,482.0,3.0,3.0,Subject4,1,Vexing
1982,11,3-Back,A,282.0,4.0,4.0,Subject4,1,Vexing
1983,11,3-Back,U,503.0,3.0,3.0,Subject4,1,Vexing
1984,11,3-Back,Y,321.0,4.0,4.0,Subject4,1,Vexing
1985,11,3-Back,A,489.0,4.0,4.0,Subject4,1,Vexing
1986,12,3-Back,W,0.0,3.0,,Subject4,0,Vexing
1987,12,3-Back,Y,0.0,3.0,,Subject4,0,Vexing
1988,12,3-Back,E,0.0,3.0,,Subject4,0,Vexing
1989,12,3-Back,S,10.0,3.0,3.0,Subject4,1,Vexing
1990,12,3-Back,Y,251.0,4.0,4.0,Subject4,1,Vexing
1991,12,3-Back,E,32.0,4.0,4.0,Subject4,1,Vexing
1992,12,3-Back,G,431.0,3.0,3.0,Subject4,1,Vexing
1993,12,3-Back,Q,1144.0,3.0,3.0,Subject4,1,Vexing
1994,12,3-Back,V,105.0,3.0,3.0,Subject4,1,Vexing
1995,12,3-Back,W,259.0,3.0,3.0,Subject4,1,Vexing
1996,12,3-Back,K,1159.0,3.0,3.0,Subject4,1,Vexing
1997,12,3-Back,D,713.0,3.0,4.0,Subject4,0,Vexing
1998,12,3-Back,C,479.0,3.0,4.0,Subject4,0,Vexing
1999,12,3-Back,U,153.0,3.0,3.0,Subject4,1,Vexing
2000,12,3-Back,V,390.0,3.0,3.0,Subject4,1,Vexing
2001,12,3-Back,A,317.0,3.0,4.0,Subject4,0,Vexing
2002,12,3-Back,U,331.0,4.0,4.0,Subject4,1,Vexing
2003,12,3-Back,X,363.0,3.0,3.0,Subject4,1,Vexing
2004,12,3-Back,A,480.0,4.0,3.0,Subject4,0,Vexing
2005,12,3-Back,U,32.0,3.0,4.0,Subject4,0,Vexing
2006,12,3-Back,X,243.0,4.0,4.0,Subject4,1,Vexing
2007,12,3-Back,M,206.0,3.0,3.0,Subject4,1,Vexing
2008,13,1-Back,K,0.0,3.0,,Subject4,0,Vexing
2009,13,1-Back,B,76.0,3.0,3.0,Subject4,1,Vexing
2010,13,1-Back,U,480.0,3.0,3.0,Subject4,1,Vexing
2011,13,1-Back,Q,302.0,3.0,3.0,Subject4,1,Vexing
2012,13,1-Back,N,295.0,3.0,3.0,Subject4,1,Vexing
2013,13,1-Back,O,6.0,3.0,3.0,Subject4,1,Vexing
2014,13,1-Back,I,348.0,3.0,3.0,Subject4,1,Vexing
2015,13,1-Back,T,372.0,3.0,3.0,Subject4,1,Vexing
2016,13,1-Back,W,356.0,3.0,3.0,Subject4,1,Vexing
2017,13,1-Back,I,292.0,4.0,3.0,Subject4,0,Vexing
2018,13,1-Back,I,53.0,4.0,4.0,Subject4,1,Vexing
2019,13,1-Back,U,475.0,3.0,3.0,Subject4,1,Vexing
2020,13,1-Back,B,385.0,3.0,3.0,Subject4,1,Vexing
2021,13,1-Back,K,403.0,3.0,3.0,Subject4,1,Vexing
2022,13,1-Back,Z,2.0,3.0,3.0,Subject4,1,Vexing
2023,13,1-Back,I,332.0,3.0,3.0,Subject4,1,Vexing
2024,13,1-Back,I,433.0,4.0,3.0,Subject4,0,Vexing
2025,13,1-Back,W,236.0,3.0,3.0,Subject4,1,Vexing
2026,13,1-Back,W,21.0,4.0,4.0,Subject4,1,Vexing
2027,13,1-Back,N,494.0,3.0,3.0,Subject4,1,Vexing
2028,13,1-Back,N,82.0,4.0,4.0,Subject4,1,Vexing
2029,13,1-Back,T,40.0,3.0,4.0,Subject4,0,Vexing
2030,14,3-Back,O,0.0,3.0,,Subject4,0,Vexing
2031,14,3-Back,E,0.0,3.0,,Subject4,0,Vexing
2032,14,3-Back,X,0.0,3.0,,Subject4,0,Vexing
2033,14,3-Back,M,485.0,3.0,3.0,Subject4,1,Vexing
2034,14,3-Back,I,177.0,3.0,3.0,Subject4,1,Vexing
2035,14,3-Back,P,761.0,3.0,3.0,Subject4,1,Vexing
2036,14,3-Back,M,382.0,4.0,4.0,Subject4,1,Vexing
2037,14,3-Back,U,596.0,3.0,3.0,Subject4,1,Vexing
2038,14,3-Back,D,367.0,3.0,3.0,Subject4,1,Vexing
2039,14,3-Back,F,221.0,3.0,3.0,Subject4,1,Vexing
2040,14,3-Back,S,0.0,3.0,,Subject4,0,Vexing
2041,14,3-Back,D,151.0,4.0,4.0,Subject4,1,Vexing
2042,14,3-Back,R,433.0,3.0,3.0,Subject4,1,Vexing
2043,14,3-Back,Q,315.0,3.0,4.0,Subject4,0,Vexing
2044,14,3-Back,F,51.0,3.0,3.0,Subject4,1,Vexing
2045,14,3-Back,A,650.0,3.0,4.0,Subject4,0,Vexing
2046,14,3-Back,X,806.0,3.0,4.0,Subject4,0,Vexing
2047,14,3-Back,F,36.0,3.0,4.0,Subject4,0,Vexing
2048,14,3-Back,A,312.0,4.0,4.0,Subject4,1,Vexing
2049,14,3-Back,X,225.0,4.0,4.0,Subject4,1,Vexing
2050,14,3-Back,Y,564.0,3.0,4.0,Subject4,0,Vexing
2051,14,3-Back,A,61.0,4.0,4.0,Subject4,1,Vexing
2052,15,1-Back,F,0.0,3.0,,Subject4,0,Vexing
2053,15,1-Back,F,461.0,4.0,4.0,Subject4,1,Vexing
2054,15,1-Back,F,187.0,4.0,4.0,Subject4,1,Vexing
2055,15,1-Back,N,15.0,3.0,3.0,Subject4,1,Vexing
2056,15,1-Back,V,365.0,3.0,3.0,Subject4,1,Vexing
2057,15,1-Back,J,412.0,3.0,3.0,Subject4,1,Vexing
2058,15,1-Back,O,349.0,3.0,3.0,Subject4,1,Vexing
2059,15,1-Back,S,445.0,3.0,3.0,Subject4,1,Vexing
2060,15,1-Back,F,291.0,3.0,3.0,Subject4,1,Vexing
2061,15,1-Back,A,355.0,3.0,3.0,Subject4,1,Vexing
2062,15,1-Back,A,429.0,4.0,4.0,Subject4,1,Vexing
2063,15,1-Back,N,89.0,3.0,3.0,Subject4,1,Vexing
2064,15,1-Back,O,0.0,3.0,,Subject4,0,Vexing
2065,15,1-Back,A,149.0,3.0,3.0,Subject4,1,Vexing
2066,15,1-Back,X,417.0,3.0,3.0,Subject4,1,Vexing
2067,15,1-Back,U,369.0,3.0,3.0,Subject4,1,Vexing
2068,15,1-Back,U,168.0,4.0,4.0,Subject4,1,Vexing
2069,15,1-Back,D,344.0,3.0,3.0,Subject4,1,Vexing
2070,15,1-Back,D,470.0,4.0,3.0,Subject4,0,Vexing
2071,15,1-Back,J,178.0,3.0,3.0,Subject4,1,Vexing
2072,15,1-Back,Q,33.0,3.0,3.0,Subject4,1,Vexing
2073,15,1-Back,Y,0.0,3.0,,Subject4,0,Vexing
2074,16,3-Back,J,0.0,2.0,,Subject4,0,Vexing
2075,16,3-Back,H,0.0,2.0,,Subject4,0,Vexing
2076,16,3-Back,G,0.0,2.0,,Subject4,0,Vexing
2077,16,3-Back,A,0.0,2.0,,Subject4,0,Vexing
2078,16,3-Back,B,45.0,2.0,3.0,Subject4,0,Vexing
2079,16,3-Back,B,179.0,1.0,4.0,Subject4,0,Vexing
2080,16,3-Back,C,0.0,2.0,,Subject4,0,Vexing
2081,16,3-Back,J,150.0,2.0,3.0,Subject4,0,Vexing
